File: data/xrd_icdd_PDF/00-065-0316 (PD3).csv
3.24286,2325.74
3.36286,2136.59
3.48286,2023.11
3.60286,1887.06
3.72286,1781.59
3.84286,1647.82
3.96286,1514.84
4.08286,1560.467
4.20286,1398.26
4.32286,1320.74
4.44286,1294.52
4.56286,1233.55
4.68286,1179.04
4.80286,1136.06
4.92286,1183.05
5.04286,1081.29
5.16286,1042.99
5.28286,1016.72
5.40286,925.611
5.52286,947.442
5.64286,920.764
5.76286,926.475
5.88286,955.4954
6.00286,845.997
6.12286,828.201
6.24286,752.842
6.36286,737.795
6.48286,736.211
6.60286,786.269
6.72286,788.6872
6.84286,761.1316
6.96286,734.532
7.08286,645.7299
7.20286,703.527
7.32286,650.365
7.44286,697.397
7.56286,695.379
7.68286,664.253
7.80286,670.0425
7.92286,646.312
8.04286,639.1311
8.16286,607.427
8.28286,590.665
8.40286,609.375
8.52286,673.433
8.64286,637.269
8.76286,633.5477
8.88286,651.796
9.00286,592.231
9.12286,624.31
9.24286,631.5826
9.36286,562.765
9.48286,572.947
9.60286,569.895
9.72286,576.792
9.84286,572.444
9.96286,539.207
10.08286,1345.86
10.20286,628.404
10.32286,550.8292
10.44286,531.752
10.56286,516.184
10.68286,507.9413
10.80286,509.441
10.92286,496.931
11.04286,487.887
11.16286,521.517
11.28286,495.232
11.40286,515.378
11.52286,520.5984
11.64286,477.672
11.76286,502.75
11.88286,479.694
12.00286,495.16
12.12286,480.942
12.24286,477.517
12.36286,458.572
12.48286,486.407
12.60286,474.46
12.72286,516.2956
12.84286,496.683
12.96286,493.021
13.08286,484.48
13.20286,479.342
13.32286,454.803
13.44286,495.01
13.56286,495.743
13.68286,480.83
13.80286,499.097
13.92286,530.158
14.04286,551.158
14.16286,860.742
14.28286,14990.4
14.40286,2344.73
14.52286,799.867
14.64286,572.377
14.76286,488.924
14.88286,480.5549
15.00286,483.523
15.12286,470.223
15.24286,526.785
15.36286,476.366
15.48286,473.505
15.60286,455.342
15.72286,457.213
15.84286,427.503
15.96286,482.733
16.08286,420.086
16.20286,495.162
16.32286,475.685
16.44286,487.664
16.56286,480.601
16.68286,481.6205
16.80286,497.815
16.92286,473.977
17.04286,486.6969
17.16286,520.306
17.28286,478.407
17.40286,483.085
17.52286,496.609
17.64286,519.881
17.76286,511.356
17.88286,523.81
18.00286,520.833
18.12286,521.272
18.24286,526.0825
18.36286,528.623
18.48286,526.455
18.60286,541.86
18.72286,549.203
18.84286,550.442
18.96286,553.734
19.08286,585.955
19.20286,583.672
19.32286,561.68
19.44286,567.5338
19.56286,602.01
19.68286,628.9517
19.80286,670.392
19.92286,706.868
20.04286,660.575
20.16286,650.936
20.28286,1088.5
20.40286,668.404
20.52286,617.907
20.64286,663.256
20.76286,659.454
20.88286,754.8681
21.00286,672.746
21.12286,694.263
21.24286,696.096
21.36286,675.89
21.48286,690.989
21.60286,664.391
21.72286,696.548
21.84286,674.718
21.96286,696.808
22.08286,704.854
22.20286,734.9974
22.32286,805.496
22.44286,842.506
22.56286,1850.74
22.68286,23775.8
22.80286,4649.76
22.92286,1350.12
23.04286,904.185
23.16286,833.1281
23.28286,761.434
23.40286,723.943
23.52286,695.145
23.64286,739.37
23.76286,747.31
23.88286,756.9557
24.00286,728.608
24.12286,789.091
24.24286,1414.25
24.36286,19389.5
24.48286,3494.1
24.60286,1236.38
24.72286,1010.45
24.84286,809.234
24.96286,795.948
25.08286,796.138
25.20286,735.652
25.32286,784.101
25.44286,779.549
25.56286,768.874
25.68286,762.278
25.80286,806.717
25.92286,810.658
26.04286,831.905
26.16286,819.683
26.28286,843.231
26.40286,814.239
26.52286,825.408
26.64286,880.0285
26.76286,848.978
26.88286,895.483
27.00286,904.271
27.12286,1204.13
27.24286,979.543
27.36286,914.124
27.48286,902.517
27.60286,926.852
27.72286,923.832
27.84286,959.103
27.96286,1001.16
28.08286,969.037
28.20286,1052.7
28.32286,2325.64
28.44286,2190.37
28.56286,1217.02
28.68286,1638.99
28.80286,11365.7
28.92286,3490.82
29.04286,1367.72
29.16286,1100.47
29.28286,1063.12
29.40286,1079.97
29.52286,1067.33
29.64286,1081.09
29.76286,1085.41
29.88286,1079.85
30.00286,1110.85
30.12286,1182.74
30.24286,1277.9
30.36286,1571.01
30.48286,5232.92
30.60286,23847.9
30.72286,9198.78
30.84286,1876.14
30.96286,1271.65
31.08286,1074.54
31.20286,1046.55
31.32286,1075.75
31.44286,1056.88
31.56286,1192.91
31.68286,1667.97
31.80286,7309.26
31.92286,81190.4
32.04286,6172.46
32.16286,2346.7
32.28286,4258.19
32.40286,2639.82
32.52286,1115.22
32.64286,850.667
32.76286,820.89
32.88286,824.8913
33.00286,736.142
33.12286,710.007
33.24286,697.744
33.36286,680.275
33.48286,641.532
33.60286,664.647
33.72286,633.174
33.84286,620.168
33.96286,718.7947
34.08286,802.699
34.20286,662.581
34.32286,578.2077
34.44286,582.8489
34.56286,549.224
34.68286,563.592
34.80286,624.729
34.92286,761.483
35.04286,3165.45
35.16286,8580.48
35.28286,1075.4
35.40286,620.158
35.52286,513.759
35.64286,515.501
35.76286,492.592
35.88286,461.348
36.00286,514.292
36.12286,482.914
36.24286,476.346
36.36286,450.138
36.48286,464.867
36.60286,455.7719
36.72286,454.117
36.84286,492.289
36.96286,1036.36
37.08286,689.5774
37.20286,466.774
37.32286,439.6
37.44286,462.652
37.56286,439.822
37.68286,456.657
37.80286,491.365
37.92286,669
38.04286,3384.01
38.16286,3543.11
38.28286,780.758
38.40286,570.461
38.52286,527.161
38.64286,490.197
38.76286,483.548
38.88286,481.188
39.00286,500.899
39.12286,489.781
39.24286,478.9692
39.36286,462.433
39.48286,467.653
39.60286,483.1374
39.72286,475.596
39.84286,477.977
39.96286,454.644
40.08286,461.3267
40.20286,501.124
40.32286,588.939
40.44286,506.842
40.56286,497.251
40.68286,468.887
40.80286,478.713
40.92286,491.929
41.04286,576.37
41.16286,825.549
41.28286,953.638
41.40286,549.5588
41.52286,502.957
41.64286,510.107
41.76286,498.166
41.88286,499.389
42.00286,507.428
42.12286,519.785
42.24286,508.985
42.36286,536.567
42.48286,668.076
42.60286,793.996
42.72286,599.537
42.84286,581.135
42.96286,660.046
43.08286,655.927
43.20286,757.546
43.32286,1486.57
43.44286,6938.83
43.56286,16678.9
43.68286,3480
43.80286,8373.87
43.92286,4378.39
44.04286,1159.45
44.16286,822.083
44.28286,635.548
44.40286,616.633
44.52286,589.137
44.64286,575.37
44.76286,569.4937
44.88286,565.963
45.00286,555.753
45.12286,569.348
45.24286,561.239
45.36286,549.842
45.48286,530.315
45.60286,523.4703
45.72286,572.464
45.84286,578.619
45.96286,620.036
46.08286,657.185
46.20286,1014.51
46.32286,2138.3
46.44286,1446.36
46.56286,802.108
46.68286,640.7955
46.80286,594.8903
46.92286,621.551
47.04286,609.67
47.16286,626.27
47.28286,714.436
47.40286,1057.96
47.52286,3715.54
47.64286,6230.51
47.76286,1364.3
47.88286,808.159
48.00286,685.635
48.12286,654.893
48.24286,632.655
48.36286,600.67
48.48286,602.077
48.60286,606.331
48.72286,661.086
48.84286,714.294
48.96286,714.815
49.08286,607.021
49.20286,641.999
49.32286,611.523
49.44286,631.383
49.56286,651.05
49.68286,685.165
49.80286,788.944
49.92286,1838.09
50.04286,1045.86
50.16286,703.498
50.28286,649.098
50.40286,704.7315
50.52286,773.287
50.64286,1351.66
50.76286,5631.41
50.88286,2540.49
51.00286,950.506
51.12286,745.965
51.24286,686.473
51.36286,653.493
51.48286,658.809
51.60286,658.904
51.72286,659.05
51.84286,708.992
51.96286,753.1463
52.08286,1105.13
52.20286,2572.2
52.32286,1115.98
52.44286,818.521
52.56286,729.835
52.68286,758.027
52.80286,915.674
52.92286,1615.66
53.04286,2804.98
53.16286,2850.38
53.28286,6206.64
53.40286,6364.53
53.52286,1664.32
53.64286,922.934
53.76286,791.792
53.88286,785.054
54.00286,709.079
54.12286,717.416
54.24286,706.287
54.36286,693.22
54.48286,734.561
54.60286,744.862
54.72286,779.752
54.84286,870.553
54.96286,1527.11
55.08286,4501.54
55.20286,12747.5
55.32286,10108.1
55.44286,2196.41
55.56286,1129.55
55.68286,843.213
55.80286,765.826
55.92286,746.568
56.04286,725.858
56.16286,827.059
56.28286,1096.66
56.40286,2154.27
56.52286,5643.65
56.64286,6784.8
56.76286,1875.93
56.88286,1123.33
57.00286,943.528
57.12286,997.473
57.24286,2018.16
57.36286,6468.25
57.48286,3208.52
57.60286,7591.55
57.72286,5941.71
57.84286,1568.22
57.96286,997.029
58.08286,777.861
58.20286,699.5005
58.32286,731.689
58.44286,763.22
58.56286,986.006
58.68286,2059.85
58.80286,1033.79
58.92286,736.354
59.04286,687.943
59.16286,740.947
59.28286,1110.22
59.40286,2205.27
59.52286,1956.8
59.64286,858.837
59.76286,667.727
59.88286,598.999
60.00286,588.404
60.12286,615.901
60.24286,614.745
60.36286,609.164
60.48286,581.656
60.60286,548.4
60.72286,541.337
60.84286,577.103
60.96286,558.163
61.08286,567.8225
61.20286,554.897
61.32286,535.1664
61.44286,576.371
61.56286,595.067
61.68286,834.298
61.80286,951.834
61.92286,614.462
62.04286,549.865
62.16286,568.055
62.28286,564.646
62.40286,546.009
62.52286,537.09
62.64286,516.209
62.76286,551.065
62.88286,544.081
63.00286,518.47
63.12286,560.76
63.24286,630.404
63.36286,758.994
63.48286,1038.16
63.60286,1351.54
63.72286,1705.96
63.84286,1608.98
63.96286,809.14
64.08286,607.732
64.20286,550.133
64.32286,581.311
64.44286,667.669
64.56286,864.426
64.68286,1210.15
64.80286,1199.81
64.92286,718.102
65.04286,603.455
65.16286,708.6562
65.28286,910.6397
65.40286,1638.02
65.52286,1861.73
65.64286,908.946
65.76286,697.8067
65.88286,583.379
66.00286,535.39
66.12286,557.771
66.24286,558.359
66.36286,670.339
66.48286,974.266
66.60286,3019.72
66.72286,4796.31
66.84286,1361.8
66.96286,779.82
67.08286,612.626
67.20286,568.975
67.32286,546.031
67.44286,600.407
67.56286,677.985
67.68286,693.103
67.80286,583.262
67.92286,534.856
68.04286,550.685
68.16286,525.841
68.28286,603.287
68.40286,822.096
68.52286,1895.08
68.64286,2151.39
68.76286,841.912
68.88286,614.902
69.00286,565.419
69.12286,506.722
69.24286,519.531
69.36286,516.062
69.48286,521.543
69.60286,487.196
69.72286,514.915
69.84286,475.6436
69.96286,495.2
70.08286,484.946
70.20286,491.321
70.32286,485.729
70.44286,492.63
70.56286,488.7771
70.68286,524.774
70.80286,522.293
70.92286,499.754
71.04286,519.572
71.16286,513.741
71.28286,523.874
71.40286,535.166
71.52286,504.955
71.64286,527.6873
71.76286,557.56
71.88286,554.024
72.00286,663.427
72.12286,936.953
72.24286,1451.12
72.36286,2197.56
72.48286,1334.21
72.60286,780.384
72.72286,710.718
72.84286,878.163
72.96286,1862.17
73.08286,2429.41
73.20286,1605.58
73.32286,1741.51
73.44286,852.466
73.56286,652.652
73.68286,598.262
73.80286,630.146
73.92286,766.299
74.04286,1280.78
74.16286,2429.1
74.28286,2751.91
74.40286,1189.91
74.52286,950.036
74.64286,1255.5
74.76286,1948.79
74.88286,3221.27
75.00286,2942.58
75.12286,1252.7
75.24286,803.557
75.36286,662.663
75.48286,574.81
75.60286,626.471
75.72286,651.691
75.84286,702.988
75.96286,783.519
76.08286,887.906
76.20286,802.759
76.32286,671.161
76.44286,689.6437
76.56286,770.5811
76.68286,1164.05
76.80286,2343.77
76.92286,4480.34
77.04286,3804.49
77.16286,1400.91
77.28286,895.256
77.40286,701.81
77.52286,643.905
77.64286,605.544
77.76286,595.589
77.88286,624.467
78.00286,649.721
78.12286,667.917
78.24286,766.86
78.36286,1069.06
78.48286,2173.73
78.60286,4314.79
78.72286,2020.75
78.84286,1328.5
78.96286,851.0309
79.08286,668.5591
79.20286,652.576
79.32286,640.217
79.44286,611.537
79.56286,662.8207
79.68286,694.921
79.80286,674.7849
79.92286,711.616
80.04286,818.0352
80.16286,1150.67
80.28286,1896.15
80.40286,2380.78
80.52286,1244.78
80.64286,768.691
80.76286,646.9021
80.88286,641.0529
81.00286,612.347
81.12286,584.604
81.24286,654.714
81.36286,677.61
81.48286,711.349
81.60286,675.41
81.72286,645.652
81.84286,756.706
81.96286,962.015
82.08286,1629.42
82.20286,1748.73
82.32286,903.347
82.44286,688.153
82.56286,615.4737
82.68286,624.108
82.80286,600.837
82.92286,670.215
83.04286,936.394
83.16286,1270.18
83.28286,1715.54
83.40286,1309.52
83.52286,786.742
83.64286,670.99
83.76286,688.931
83.88286,786.438
84.00286,1081.26
84.12286,1455.47
84.24286,1425.92
84.36286,834.277
84.48286,641.814
84.60286,611.2858
84.72286,604.072
84.84286,586.279
84.96286,563.593
85.08286,636.184
85.20286,684.402
85.32286,875.733
85.44286,1310.7
85.56286,2338.83
85.68286,4299.02
85.80286,3990.22
85.92286,1667.17
86.04286,975.914
86.16286,733.099
86.28286,646.526
86.40286,590.659
86.52286,646.178
86.64286,680.627
86.76286,747.523
86.88286,814.213
87.00286,641.783
87.12286,700.987
87.24286,699.7132
87.36286,811.808
87.48286,929.005
87.60286,1225.05
87.72286,1413.32
87.84286,895.54
87.96286,646.578
88.08286,562.565
88.20286,560.741
88.32286,562.834
88.44286,573.016
88.56286,558.96
88.68286,605.388
88.80286,680.347
88.92286,797.904
89.04286,1020.45
89.16286,1330.3
89.28286,1593.18
89.40286,1437.37
89.52286,962.3809
89.64286,720.401
89.76286,633.318
89.88286,618.719
90.00286,689.468
90.12286,792.094
90.24286,899.067
90.36286,1112.7
90.48286,1071.6
90.60286,838.11
90.72286,710.278
90.84286,785.693
90.96286,1167.83
91.08286,1811.16
91.20286,2022.83
91.32286,2087.74
91.44286,1084.63
91.56286,752.686
91.68286,618.206
91.80286,551.147
91.92286,567.879
92.04286,562.258
92.16286,574.812
92.28286,593.021
92.40286,668.9298
92.52286,807.785
92.64286,1018.25
92.76286,1439.78
92.88286,1586.3
93.00286,1398.84
93.12286,1229.06
93.24286,884.828
93.36286,707.1647
93.48286,588.674
93.60286,541.955
93.72286,521.274
93.84286,527.162
93.96286,548.949
94.08286,583.787
94.20286,647.223
94.32286,861.567
94.44286,1404.08
94.56286,2492.91
94.68286,2689.57
94.80286,1439.8
94.92286,1037.65
95.04286,794.665
95.16286,614.306
95.28286,601.894
95.40286,652.821
95.52286,888.37
95.64286,1364.66
95.76286,1456.55
95.88286,851.499
96.00286,662.878
96.12286,682.518
96.24286,833.584
96.36286,1335.25
96.48286,1150.79
96.60286,856.338
96.72286,691.658
96.84286,559.349
96.96286,544.16
97.08286,578.941
97.20286,648.175
97.32286,773.374
97.44286,982.302
97.56286,1001.09
97.68286,679.318
97.80286,592.951
97.92286,608.3977
98.04286,741.987
98.16286,950.025
98.28286,849.706
98.40286,679.4823
98.52286,600.181
98.64286,536.1104
98.76286,497.965
98.88286,470.9198
99.00286,471.714
99.12286,473.751
99.24286,464.73
99.36286,463.938
99.48286,456.939
99.60286,459.595
99.72286,435.784
99.84286,449.655
99.96286,467.867
100.083,451.548
100.203,452.819
100.323,465.034
100.443,470.063
100.563,466.358
100.683,444.739
100.803,464.056
100.923,471.001
101.043,478.26
101.163,490.52
101.283,476.593
101.403,527.368
101.523,650.314
101.643,829.111
101.763,940.405
101.883,799.797
102.003,598.688
102.123,493.554
102.243,492.607
102.363,509.012
102.483,502.967
102.603,602.774
102.723,703.186
102.843,937.579
102.963,1003.73
103.083,803.122
103.203,745.348
103.323,811.643
103.443,1025.63
103.563,1306.89
103.683,1406.15
103.803,1150.52
103.923,904.208
104.043,694.744
104.163,564.238
104.283,559.421
104.403,539.526
104.523,526.483
104.643,588.222
104.763,605.881
104.883,652.559
105.003,671.768
105.123,737.844
105.243,883.313
105.363,1034.13
105.483,1091.13
105.603,821.998
105.723,695.366
105.843,619.794
105.963,527.852
106.083,470.325
106.203,485.13
106.323,486.8565
106.443,462.0166
106.563,486.918
106.683,486.044
106.803,482.0509
106.923,472.234
107.043,512.668
107.163,529.941
107.283,589.719
107.403,695.037
107.523,833.093
107.643,778.749
107.763,636.7
107.883,570.282
108.003,566.095
108.123,636.45
108.243,769.667
108.363,886.514
108.483,862.1624
108.603,705.457
108.723,593.346
108.843,627.494
108.963,672.446
109.083,726.577
109.203,897.822
109.323,1101.43
109.443,1186.57
109.563,999.789
109.683,734.937
109.803,565.1533
109.923,546.949
110.043,505.671
110.163,516.027
110.283,516.476
110.403,509.987
110.523,528.574
110.643,526.184
110.763,602.264
110.883,738.742
111.003,940.898
111.123,819.71
111.243,703.909
111.363,623.4728
111.483,607.027
111.603,692.229
111.723,736.017
111.843,925.053
111.963,1109.63
112.083,1451.7
112.203,1818.796
112.323,1932.84
112.443,1415.53
112.563,1131.31
112.683,1220.04
112.803,1519.46
112.923,1761.14
113.043,1641.84
113.163,1189.37
113.283,910.355
113.403,725.299
113.523,643.197
113.643,581.813
113.763,537.114
113.883,551.8511
114.003,507.654
114.123,516.922
114.243,548.732
114.363,596.645
114.483,623.524
114.603,695.853
114.723,806.84
114.843,877.328
114.963,887.4402
115.083,824.052
115.203,828.5038
115.323,672.199
115.443,619.1538
115.563,588.43
115.683,666.358
115.803,697.89
115.923,801.569
116.043,1151.96
116.163,1407.53
116.283,1109.33
116.403,746.028
116.523,620.08
116.643,596.156
116.763,585.6527
116.883,573.015
117.003,627.961
117.123,623.748
117.243,609.142
117.363,539.497
117.483,524.9642
117.603,522.216
117.723,565.612
117.843,608.062
117.963,629.204
118.083,661.796
118.203,707.758
118.323,733.315
118.443,776.775
118.563,932.354
118.683,1047.37
118.803,1261.1
118.923,1315.4
119.043,1188.8
119.163,891.827
119.283,756.954
119.403,673.522
119.523,621.238
119.643,589.352
119.763,610.403
119.883,605.2596
120.003,620.302
120.123,663.689
120.243,705.926
120.363,717.9
120.483,736.784
120.603,819.893
120.723,1013.71
120.843,1252.06
120.963,1242.87
121.083,972.845
121.203,741.576
121.323,625.621
121.443,549.6966
121.563,501.93
121.683,507.345
121.803,511.678
121.923,482.067
122.043,489.941
122.163,515.9005
122.283,500.233
122.403,469.851
122.523,531.976
122.643,545.419
122.763,509.626
122.883,552.763
123.003,539.847
123.123,539.3196
123.243,592.016
123.363,609.242
123.483,585.44
123.603,601.215
123.723,600.903
123.843,592.671
123.963,643.274
124.083,713.551
124.203,808.8198
124.323,907.417
124.443,870.376
124.563,898.7163
124.683,874.589
124.803,1015.77
124.923,1210.85
125.043,1541.43
125.163,1776.01
125.283,1778.72
125.403,1623.16
125.523,1375.44
125.643,1004.69
125.763,839.678
125.883,731.362
126.003,649.3283
126.123,629.249
126.243,606.736
126.363,581.652
126.483,568.4793
126.603,583.8
126.723,563.442
126.843,565.355
126.963,548.85
127.083,564.6266
127.203,590.954
127.323,660.872
127.443,654.239
127.563,663.342
127.683,617.907
127.803,609.407
127.923,527.7466
128.043,491.356
128.163,522.258
128.283,497.796
128.403,475.0173
128.523,488.03
128.643,487.441
128.763,524.0711
128.883,520.6508
129.003,589.243
129.123,614.341
129.243,679.451
129.363,737.319
129.483,887.735
129.603,1064.03
129.723,1217.39
129.843,1171.94
129.963,1055.76
130.083,824.434
130.203,663.306
130.323,586.119
130.443,540.541
130.563,533.5938
130.683,484.53
130.803,554.442
130.923,548.685
131.043,571.786
131.163,571.025
131.283,608.137
131.403,611.105
131.523,674.673
131.643,733.091
131.763,838.349
131.883,927.644
132.003,946.508
132.123,925.325
132.243,811.275
132.363,750.0084
132.483,634.133
132.603,616.855
132.723,568.811
132.843,546.682
132.963,575.412
133.083,622.08
133.203,620.227
133.323,693.992
133.443,745.48
133.563,795.378
133.683,757.9968
133.803,700.058
133.923,717.34
134.043,736.432
134.163,806.692
134.283,903.087
134.403,1044.29
134.523,1185.93
134.643,1361.35
134.763,1349.45
134.883,1114.71
135.003,941.541
135.123,748.12
135.243,689.2382
135.363,635.9
135.483,598.645
135.603,595.456
135.723,598.074
135.843,621.221
135.963,627.151
136.083,633.518
136.203,589.159
136.323,550.873
136.443,512.976
136.563,489.222
136.683,477.053
136.803,458.361
136.923,464.262
137.043,476.831
137.163,467.797
137.283,461.276
137.403,444.443
137.523,481.1281
137.643,499.607
137.763,471.131
137.883,523.1405
138.003,529.031
138.123,559.353
138.243,617.469
138.363,718.736
138.483,852.513
138.603,959.977
138.723,910.861
138.843,754.688
138.963,620.923
139.083,540.63
139.203,535.766
139.323,496.625
139.443,470.315
139.563,476.004
139.683,484.453
139.803,464.821
139.923,442.658
140.043,438.113
140.163,443.475
140.283,423.429
140.403,438.934
140.523,442.856
140.643,453.2741
140.763,442.152
140.883,453.65
141.003,446.659
141.123,458.729
141.243,466.721
141.363,490.973
141.483,472.8545
141.603,463.447
141.723,481.339
141.843,500.625
141.963,551.376
142.083,524.797
142.203,546.671
142.323,527.273
142.443,548.001
142.563,577.038
142.683,554.9533
142.803,507.997
142.923,506.302
143.043,484.4857
143.163,527.183
143.283,467.412
143.403,462.795
143.523,475.642
143.643,454.028
143.763,478.034
143.883,461.312
144.003,455.819
144.123,486.989
144.243,496.344
144.363,465.571
144.483,524.437
144.603,503.791
144.723,510.111
144.843,510.363
144.963,556.864
145.083,567.106
145.203,558.4521
145.323,606.83
145.443,637.801
145.563,655.783
145.683,654.335
145.803,685.656
145.923,657.525
146.043,630.994
146.163,582.585
146.283,565.001
146.403,490.028
146.523,484.438
146.643,469.0447
146.763,459.588
146.883,441.55
147.003,465.275
147.123,443.747
147.243,464.948
147.363,486.2652
147.483,461.001
147.603,480.11
147.723,491.635
147.843,493.695
147.963,527.456
148.083,501.538
148.203,553
148.323,592.8055
148.443,624.853
148.563,685.702
148.683,741.196
148.803,729.974
148.923,676.603
149.043,693.1538
149.163,712.155
149.283,689.2865
149.403,620.753
149.523,614.825
149.643,572.985
149.763,568.356
149.883,543.153
150.003,553.115
150.123,543.0454
150.243,554.835
150.363,590.415
150.483,612.24
150.603,650.721
150.723,622.015
150.843,678.042
150.963,683.73
151.083,719.302
151.203,701.133
151.323,699.497
151.443,664.814
151.563,679.727
151.683,694.218
151.803,666.28
151.923,700.462
152.043,718.954
152.163,731.483
152.283,755.184
152.403,751.089
152.523,765.63
152.643,728.313
152.763,741.304
152.883,696.857
153.003,655.956
153.123,592.926
153.243,581.054
153.363,562.533
153.483,529.201
153.603,526.539
153.723,501.121
153.843,505.999
153.963,505.047
154.083,461.469
154.203,448.351
154.323,456.21
154.443,475.356
154.563,467.125
154.683,433.629
154.803,427.652
154.923,451.67
155.043,443.366
155.163,460.051
155.283,465.548
155.403,499.115
155.523,498.1001
155.643,506.59
155.763,516.032
155.883,565.433
156.003,584.2801
156.123,607.419
156.243,613.2445
156.363,623.68
156.483,637.975
156.603,665.384
156.723,630.559
156.843,589.698
156.963,589.873
157.083,575.483
157.203,552.227
157.323,546.2075
157.443,519.8024
157.563,510.16
157.683,532.578
157.803,536.1339
157.923,535.404
158.043,513.628
158.163,521.299
158.283,525.58
158.403,528.833
158.523,549.4319
158.643,586.986
158.763,571.509
158.883,597.436
159.003,646.526
159.123,662.892
159.243,683.82
159.363,707.074
159.483,673.892
159.603,680.7916
159.723,678.734
159.843,647.952
159.963,667.57
160.083,663.703
160.203,637.4354
160.323,629.322
160.443,632.964
160.563,612.017
160.683,626.835
160.803,616.664
160.923,606.615
161.043,633.688
161.163,627.4899
161.283,621.388
161.403,607.142
161.523,584.382
161.643,560.088
161.763,545.422
161.883,546.271
162.003,537.404
162.123,507.873
162.243,501.646
162.363,477.9545
162.483,455.771
162.603,471.845
162.723,461.567
162.843,443.979
162.963,437.058
163.083,450.838
163.203,446.986
163.323,450.8486
163.443,455.666
163.563,437.266
163.683,424.47
163.803,436.07
163.923,417.226
164.043,408.144
164.163,428.886
164.283,423.188
164.403,427.394
164.523,417.828
164.643,432.4092
164.763,434.8619
164.883,443.364
165.003,441.158
165.123,435.855
165.243,441.056
165.363,436.741
165.483,436.5569
165.603,428.567
165.723,417.758
165.843,431.342
165.963,439.802
166.083,461.5131
166.203,466.188
166.323,475.574
166.443,452.152
166.563,417.715
166.683,427.253
166.803,463.205
166.923,475.792
167.043,469.308
167.163,467.079
167.283,472.869
167.403,490.592
167.523,479.427
167.643,453.921
167.763,458.548
167.883,468.053
168.003,464.898
168.123,468.004
168.243,473.211
168.363,503.459
168.483,521.973
168.603,522.289
168.723,543.857
168.843,545.351
168.963,535.576
169.083,536.103
169.203,520.792
169.323,524.855
169.443,529.314
169.563,531.571
169.683,532.813
169.803,509.417
169.923,499.874
170.043,486.477
170.163,494.389
170.283,496.971
170.403,507.55
170.523,494.981
170.643,484.704
170.763,465.41
170.883,455.023
171.003,455.298
171.123,475.881
171.243,469.0709
171.363,470.954
171.483,467.698
171.603,453.345
171.723,455.987
171.843,483.352
171.963,491.053
172.083,490.6951
172.203,495.129
172.323,505.686
172.443,498.63
172.563,501.335
172.683,519.807
172.803,529.853
172.923,538.378
173.043,547.035
173.163,554.667
173.283,563.1037
173.403,573.139
173.523,579.035
173.643,583.917
173.763,587.486
173.883,594.052
174.003,598.592
174.123,605.155
174.243,613.387
174.363,619.42
174.483,625.525
174.603,637.408
174.723,643.36
174.843,635.39
174.963,642.419
175.083,651.474
175.203,670.3
175.323,677.4402
175.443,684.197
175.563,700.726
175.683,705.943
175.803,709.084
175.923,708.834
176.043,711.189
176.163,712.189
176.283,711.95
176.403,693.558
176.523,691.78
176.643,690.956
176.763,690.993
176.883,698.975
177.003,699.21
177.123,699.443
177.243,699.672
177.363,699.898
177.483,707.971
177.603,707.749
177.723,707.113
177.843,706.126
177.963,704.849
178.083,703.339
178.203,693.601
178.323,692.893
178.443,692.256
178.563,691.685
178.653,691.298