File: data/xrd_icdd_PDF/00-073-0865 (PD3).csv
10,607
10.05,617
10.1,572
10.15,610
10.2,635
10.25,573
10.3,599
10.35,568
10.4,593
10.45,565
10.5,600
10.55,603
10.6,562
10.65,564
10.7,559
10.75,566
10.8,618
10.85,606
10.9,575
10.95,602
11,593
11.05,577
11.1,557
11.15,530
11.2,593
11.25,569
11.3,566
11.35,559
11.4,569
11.45,592
11.5,550
11.55,601
11.6,561
11.65,575
11.7,572
11.75,558
11.8,535
11.85,580
11.9,550
11.95,555
12,570
12.05,568
12.1,554
12.15,588
12.2,548
12.25,569
12.3,572
12.35,560
12.4,555
12.45,572
12.5,538
12.55,547
12.6,542
12.65,588
12.7,565
12.75,581
12.8,510
12.85,560
12.9,552
12.95,524
13,561
13.05,512
13.1,534
13.15,558
13.2,550
13.25,536
13.3,519
13.35,499
13.4,535
13.45,555
13.5,528
13.55,567
13.6,525
13.65,556
13.7,517
13.75,491
13.8,554
13.85,513
13.9,544
13.95,548
14,558
14.05,531
14.1,538
14.15,555
14.2,506
14.25,548
14.3,559
14.35,522
14.4,539
14.45,537
14.5,518
14.55,535
14.6,505
14.65,543
14.7,537
14.75,515
14.8,546
14.85,505
14.9,548
14.95,524
15,561
15.05,548
15.1,547
15.15,580
15.2,528
15.25,570
15.3,520
15.35,535
15.4,510
15.45,557
15.5,531
15.55,534
15.6,550
15.65,534
15.7,566
15.75,562
15.8,534
15.85,577
15.9,516
15.95,590
16,583
16.05,618
16.1,571
16.15,539
16.2,559
16.25,578
16.3,565
16.35,571
16.4,568
16.45,566
16.5,593
16.55,551
16.6,566
16.65,575
16.7,574
16.75,566
16.8,567
16.85,539
16.9,555
16.95,569
17,576
17.05,534
17.1,540
17.15,577
17.2,516
17.25,530
17.3,557
17.35,563
17.4,562
17.45,559
17.5,602
17.55,628
17.6,602
17.65,649
17.7,611
17.75,619
17.8,623
17.85,639
17.9,703
17.95,812
18,928
18.05,1147
18.1,1602
18.15,2328
18.2,4329
18.25,7068
18.3,5005
18.35,1818
18.4,976
18.45,824
18.5,667
18.55,669
18.6,679
18.65,612
18.7,618
18.75,636
18.8,666
18.85,654
18.9,604
18.95,593
19,636
19.05,636
19.1,630
19.15,643
19.2,634
19.25,610
19.3,655
19.35,621
19.4,613
19.45,634
19.5,619
19.55,620
19.6,705
19.65,601
19.7,622
19.75,633
19.8,625
19.85,639
19.9,628
19.95,686
20,642
20.05,603
20.1,636
20.15,708
20.2,642
20.25,681
20.3,816
20.35,1038
20.4,1275
20.45,1450
20.5,1018
20.55,720
20.6,669
20.65,643
20.7,645
20.75,677
20.8,671
20.85,623
20.9,612
20.95,608
21,609
21.05,596
21.1,617
21.15,635
21.2,626
21.25,621
21.3,618
21.35,566
21.4,662
21.45,621
21.5,599
21.55,611
21.6,602
21.65,618
21.7,610
21.75,567
21.8,563
21.85,555
21.9,611
21.95,614
22,589
22.05,573
22.1,605
22.15,564
22.2,575
22.25,590
22.3,553
22.35,540
22.4,570
22.45,560
22.5,586
22.55,546
22.6,570
22.65,588
22.7,592
22.75,551
22.8,580
22.85,577
22.9,564
22.95,576
23,512
23.05,534
23.1,547
23.15,547
23.2,568
23.25,586
23.3,654
23.35,621
23.4,681
23.45,580
23.5,546
23.55,534
23.6,577
23.65,544
23.7,550
23.75,539
23.8,517
23.85,526
23.9,516
23.95,541
24,506
24.05,536
24.1,504
24.15,494
24.2,590
24.25,579
24.3,536
24.35,564
24.4,553
24.45,543
24.5,527
24.55,531
24.6,531
24.65,556
24.7,590
24.75,558
24.8,546
24.85,550
24.9,545
24.95,603
25,614
25.05,748
25.1,865
25.15,1243
25.2,1966
25.25,3562
25.3,3844
25.35,2900
25.4,1523
25.45,1029
25.5,780
25.55,770
25.6,844
25.65,1077
25.7,1504
25.75,2249
25.8,4067
25.85,8294
25.9,15939
25.95,14272
26,8239
26.05,2617
26.1,1292
26.15,931
26.2,804
26.25,828
26.3,971
26.35,1239
26.4,1764
26.45,2753
26.5,3783
26.55,3612
26.6,2108
26.65,1129
26.7,723
26.75,647
26.8,685
26.85,756
26.9,935
26.95,926
27,723
27.05,618
27.1,542
27.15,520
27.2,533
27.25,490
27.3,493
27.35,498
27.4,536
27.45,462
27.5,480
27.55,475
27.6,517
27.65,481
27.7,486
27.75,491
27.8,506
27.85,488
27.9,471
27.95,456
28,478
28.05,481
28.1,499
28.15,523
28.2,522
28.25,596
28.3,716
28.35,726
28.4,800
28.45,754
28.5,677
28.55,691
28.6,624
28.65,600
28.7,546
28.75,513
28.8,447
28.85,452
28.9,466
28.95,448
29,477
29.05,429
29.1,430
29.15,472
29.2,439
29.25,467
29.3,510
29.35,504
29.4,563
29.45,633
29.5,559
29.55,513
29.6,505
29.65,545
29.7,566
29.75,504
29.8,488
29.85,464
29.9,469
29.95,468
30,547
30.05,607
30.1,583
30.15,532
30.2,457
30.25,480
30.3,441
30.35,408
30.4,476
30.45,486
30.5,501
30.55,596
30.6,843
30.65,875
30.7,808
30.75,771
30.8,880
30.85,1130
30.9,1093
30.95,861
31,587
31.05,487
31.1,460
31.15,420
31.2,443
31.25,429
31.3,510
31.35,537
31.4,521
31.45,474
31.5,473
31.55,481
31.6,518
31.65,534
31.7,595
31.75,601
31.8,582
31.85,501
31.9,480
31.95,455
32,409
32.05,431
32.1,383
32.15,409
32.2,416
32.25,411
32.3,407
32.35,417
32.4,425
32.45,428
32.5,390
32.55,409
32.6,429
32.65,392
32.7,378
32.75,402
32.8,422
32.85,383
32.9,408
32.95,416
33,429
33.05,431
33.1,571
33.15,726
33.2,1139
33.25,1036
33.3,886
33.35,576
33.4,458
33.45,436
33.5,404
33.55,394
33.6,380
33.65,422
33.7,381
33.75,403
33.8,411
33.85,354
33.9,398
33.95,452
34,463
34.05,551
34.1,731
34.15,752
34.2,650
34.25,532
34.3,528
34.35,446
34.4,460
34.45,472
34.5,412
34.55,420
34.6,432
34.65,481
34.7,487
34.75,551
34.8,608
34.85,706
34.9,601
34.95,540
35,422
35.05,367
35.1,400
35.15,395
35.2,391
35.25,380
35.3,408
35.35,400
35.4,403
35.45,431
35.5,412
35.55,442
35.6,435
35.65,434
35.7,456
35.75,436
35.8,390
35.85,419
35.9,412
35.95,406
36,386
36.05,430
36.1,427
36.15,415
36.2,391
36.25,414
36.3,446
36.35,378
36.4,422
36.45,384
36.5,445
36.55,467
36.6,477
36.65,517
36.7,652
36.75,896
36.8,1397
36.85,2567
36.9,5210
36.95,7998
37,6642
37.05,4680
37.1,2568
37.15,1055
37.2,716
37.25,544
37.3,508
37.35,468
37.4,442
37.45,454
37.5,449
37.55,456
37.6,583
37.65,783
37.7,969
37.75,798
37.8,733
37.85,570
37.9,501
37.95,476
38,519
38.05,685
38.1,1001
38.15,972
38.2,803
38.25,612
38.3,426
38.35,409
38.4,399
38.45,388
38.5,371
38.55,395
38.6,394
38.65,366
38.7,384
38.75,376
38.8,410
38.85,384
38.9,405
38.95,396
39,362
39.05,340
39.1,375
39.15,360
39.2,382
39.25,386
39.3,371
39.35,341
39.4,358
39.45,373
39.5,340
39.55,373
39.6,342
39.65,395
39.7,370
39.75,352
39.8,366
39.85,344
39.9,366
39.95,427
40,408
40.05,421
40.1,425
40.15,438
40.2,428
40.25,409
40.3,419
40.35,431
40.4,450
40.45,504
40.5,520
40.55,815
40.6,1395
40.65,2024
40.7,1858
40.75,1668
40.8,1170
40.85,826
40.9,626
40.95,518
41,453
41.05,424
41.1,448
41.15,417
41.2,438
41.25,500
41.3,569
41.35,733
41.4,1159
41.45,2075
41.5,3036
41.55,2431
41.6,2112
41.65,1465
41.7,1265
41.75,1275
41.8,1007
41.85,912
41.9,750
41.95,573
42,505
42.05,466
42.1,464
42.15,481
42.2,564
42.25,663
42.3,773
42.35,705
42.4,610
42.45,532
42.5,470
42.55,442
42.6,390
42.65,337
42.7,375
42.75,357
42.8,338
42.85,355
42.9,341
42.95,346
43,361
43.05,348
43.1,364
43.15,363
43.2,415
43.25,421
43.3,458
43.35,528
43.4,469
43.45,453
43.5,425
43.55,374
43.6,385
43.65,337
43.7,350
43.75,362
43.8,380
43.85,371
43.9,372
43.95,345
44,353
44.05,359
44.1,375
44.15,336
44.2,352
44.25,345
44.3,383
44.35,369
44.4,361
44.45,360
44.5,409
44.55,382
44.6,416
44.65,444
44.7,499
44.75,617
44.8,951
44.85,1692
44.9,1939
44.95,1611
45,1607
45.05,1187
45.1,876
45.15,763
45.2,944
45.25,1461
45.3,2023
45.35,1573
45.4,1443
45.45,1175
45.5,678
45.55,497
45.6,465
45.65,444
45.7,441
45.75,480
45.8,496
45.85,558
45.9,698
45.95,939
46,1427
46.05,2042
46.1,1891
46.15,1563
46.2,1597
46.25,1495
46.3,1841
46.35,2539
46.4,3455
46.45,3201
46.5,2254
46.55,1992
46.6,1174
46.65,778
46.7,563
46.75,461
46.8,471
46.85,409
46.9,383
46.95,377
47,366
47.05,382
47.1,382
47.15,377
47.2,369
47.25,385
47.3,396
47.35,366
47.4,346
47.45,375
47.5,336
47.55,324
47.6,359
47.65,353
47.7,340
47.75,348
47.8,389
47.85,357
47.9,391
47.95,370
48,372
48.05,415
48.1,416
48.15,390
48.2,380
48.25,380
48.3,376
48.35,332
48.4,332
48.45,329
48.5,361
48.55,368
48.6,366
48.65,343
48.7,408
48.75,394
48.8,374
48.85,366
48.9,334
48.95,327
49,358
49.05,322
49.1,313
49.15,358
49.2,374
49.25,351
49.3,334
49.35,325
49.4,357
49.45,354
49.5,381
49.55,358
49.6,403
49.65,435
49.7,450
49.75,611
49.8,586
49.85,494
49.9,533
49.95,439
50,442
50.05,372
50.1,354
50.15,385
50.2,315
50.25,370
50.3,372
50.35,372
50.4,392
50.45,376
50.5,372
50.55,361
50.6,369
50.65,409
50.7,358
50.75,328
50.8,324
50.85,361
50.9,343
50.95,367
51,358
51.05,346
51.1,339
51.15,352
51.2,318
51.25,290
51.3,347
51.35,348
51.4,312
51.45,339
51.5,365
51.55,326
51.6,362
51.65,365
51.7,408
51.75,455
51.8,522
51.85,548
51.9,564
51.95,528
52,448
52.05,407
52.1,396
52.15,352
52.2,356
52.25,327
52.3,334
52.35,358
52.4,306
52.45,320
52.5,328
52.55,352
52.6,348
52.65,378
52.7,453
52.75,410
52.8,437
52.85,440
52.9,459
52.95,431
53,477
53.05,541
53.1,701
53.15,1022
53.2,1733
53.25,2122
53.3,1500
53.35,1322
53.4,1207
53.45,741
53.5,510
53.55,412
53.6,378
53.65,382
53.7,419
53.75,412
53.8,398
53.85,395
53.9,384
53.95,392
54,326
54.05,347
54.1,321
54.15,346
54.2,358
54.25,359
54.3,392
54.35,396
54.4,438
54.45,499
54.5,547
54.55,571
54.6,601
54.65,518
54.7,459
54.75,450
54.8,371
54.85,339
54.9,349
54.95,330
55,317
55.05,320
55.1,297
55.15,341
55.2,334
55.25,379
55.3,426
55.35,629
55.4,706
55.45,678
55.5,687
55.55,622
55.6,596
55.65,590
55.7,523
55.75,479
55.8,409
55.85,449
55.9,445
55.95,532
56,640
56.05,1073
56.1,1117
56.15,1048
56.2,994
56.25,874
56.3,663
56.35,515
56.4,492
56.45,435
56.5,332
56.55,355
56.6,349
56.65,377
56.7,430
56.75,416
56.8,398
56.85,435
56.9,387
56.95,384
57,374
57.05,351
57.1,393
57.15,400
57.2,380
57.25,440
57.3,436
57.35,482
57.4,504
57.45,480
57.5,493
57.55,517
57.6,421
57.65,404
57.7,394
57.75,370
57.8,375
57.85,390
57.9,352
57.95,401
58,420
58.05,423
58.1,411
58.15,377
58.2,366
58.25,375
58.3,306
58.35,317
58.4,328
58.45,327
58.5,320
58.55,304
58.6,309
58.65,296
58.7,309
58.75,301
58.8,313
58.85,296
58.9,284
58.95,298
59,341
59.05,334
59.1,414
59.15,446
59.2,405
59.25,416
59.3,437
59.35,414
59.4,338
59.45,343
59.5,355
59.55,310
59.6,323
59.65,316
59.7,327
59.75,342
59.8,304
59.85,355
59.9,424
59.95,524
60,699
60.05,1000
60.1,1337
60.15,1483
60.2,1159
60.25,969
60.3,939
60.35,752
60.4,505
60.45,406
60.5,409
60.55,326
60.6,339
60.65,315
60.7,322
60.75,388
60.8,410
60.85,401
60.9,520
60.95,595
61,629
61.05,618
61.1,518
61.15,472
61.2,457
61.25,385
61.3,334
61.35,346
61.4,348
61.45,339
61.5,311
61.55,301
61.6,317
61.65,286
61.7,309
61.75,339
61.8,337
61.85,347
61.9,343
61.95,318
62,336
62.05,349
62.1,330
62.15,364
62.2,339
62.25,353
62.3,402
62.35,524
62.4,695
62.45,636
62.5,589
62.55,550
62.6,595
62.65,465
62.7,414
62.75,352
62.8,337
62.85,310
62.9,346
62.95,298
63,303
63.05,353
63.1,348
63.15,354
63.2,345
63.25,377
63.3,369
63.35,318
63.4,383
63.45,342
63.5,401
63.55,456
63.6,479
63.65,451
63.7,481
63.75,440
63.8,420
63.85,408
63.9,403
63.95,393
64,380
64.05,406
64.1,444
64.15,528
64.2,561
64.25,583
64.3,537
64.35,465
64.4,411
64.45,424
64.5,355
64.55,356
64.6,329
64.65,325
64.7,322
64.75,356
64.8,353
64.85,357
64.9,305
64.95,328
65,322
65.05,312
65.1,307
65.15,323
65.2,315
65.25,354
65.3,409
65.35,425
65.4,386
65.45,374
65.5,349
65.55,407
65.6,334
65.65,308
65.7,269
65.75,298
65.8,309
65.85,280
65.9,271
65.95,275
66,262
66.05,280
66.1,289
66.15,286
66.2,299
66.25,278
66.3,356
66.35,370
66.4,405
66.45,339
66.5,332
66.55,360
66.6,370
66.65,310
66.7,318
66.75,284
66.8,274
66.85,274
66.9,293
66.95,264
67,284
67.05,295
67.1,274
67.15,274
67.2,284
67.25,259
67.3,287
67.35,290
67.4,286
67.45,325
67.5,316
67.55,359
67.6,389
67.65,415
67.7,504
67.75,548
67.8,578
67.85,564
67.9,526
67.95,482
68,467
68.05,461
68.1,400
68.15,397
68.2,379
68.25,329
68.3,346
68.35,314
68.4,308
68.45,298
68.5,278
68.55,322
68.6,304
68.65,310
68.7,307
68.75,297
68.8,300
68.85,303
68.9,275
68.95,296
69,270
69.05,262
69.1,275
69.15,279
69.2,288
69.25,278
69.3,288
69.35,326
69.4,287
69.45,326
69.5,343
69.55,372
69.6,428
69.65,512
69.7,435
69.75,431
69.8,375
69.85,410
69.9,359
69.95,295
70,285
70.05,289
70.1,254
70.15,238
70.2,259
70.25,286
70.3,304
70.35,270
70.4,296
70.45,309
70.5,292
70.55,283
70.6,282
70.65,319
70.7,284
70.75,267
70.8,289
70.85,295
70.9,305
70.95,286
71,295
71.05,294
71.1,287
71.15,275
71.2,260
71.25,288
71.3,284
71.35,283
71.4,274
71.45,288
71.5,307
71.55,283
71.6,319
71.65,365
71.7,369
71.75,399
71.8,434
71.85,409
71.9,382
71.95,408
72,421
72.05,413
72.1,449
72.15,454
72.2,415
72.25,413
72.3,438
72.35,406
72.4,339
72.45,333
72.5,285
72.55,299
72.6,283
72.65,275
72.7,272
72.75,266
72.8,263
72.85,296
72.9,292
72.95,299
73,338
73.05,352
73.1,401
73.15,463
73.2,568
73.25,672
73.3,624
73.35,544
73.4,579
73.45,567
73.5,630
73.55,545
73.6,474
73.65,366
73.7,400
73.75,350
73.8,296
73.85,295
73.9,285
73.95,303
74,301
74.05,310
74.1,350
74.15,364
74.2,370
74.25,404
74.3,515
74.35,470
74.4,531
74.45,434
74.5,390
74.55,402
74.6,386
74.65,368
74.7,367
74.75,275
74.8,262
74.85,240
74.9,310
74.95,242
75,259
75.05,269
75.1,257
75.15,256
75.2,262
75.25,233
75.3,248
75.35,243
75.4,264
75.45,245
75.5,258
75.55,244
75.6,255
75.65,243
75.7,247
75.75,242
75.8,270
75.85,235
75.9,261
75.95,257
76,264
76.05,269
76.1,256
76.15,238
76.2,242
76.25,253
76.3,254
76.35,212
76.4,237
76.45,234
76.5,270
76.55,240
76.6,258
76.65,254
76.7,257
76.75,245
76.8,246
76.85,237
76.9,244
76.95,239
77,246
77.05,236
77.1,250
77.15,228
77.2,248
77.25,248
77.3,224
77.35,223
77.4,250
77.45,243
77.5,237
77.55,244
77.6,263
77.65,245
77.7,235
77.75,268
77.8,250
77.85,255
77.9,261
77.95,228
78,238
78.05,253
78.1,253
78.15,222
78.2,212
78.25,227
78.3,237
78.35,249
78.4,250
78.45,246
78.5,301
78.55,309
78.6,316
78.65,342
78.7,300
78.75,294
78.8,233
78.85,292
78.9,305
78.95,286
79,228
79.05,251
79.1,279
79.15,249
79.2,247
79.25,300
79.3,289
79.35,261
79.4,237
79.45,271
79.5,280
79.55,252
79.6,273
79.65,278
79.7,287
79.75,376
79.8,411
79.85,438
79.9,386
79.95,387
80,392