File: data/xrd_icdd_PDF/00-069-0772 (PD3).csv
5,72
5.08,65
5.16,62
5.24,57
5.32,57
5.4,54
5.48,59
5.56,70
5.64,70
5.72,55
5.8,73
5.88,67
5.96,67
6.04,69
6.12,63
6.2,67
6.28,74
6.36,62
6.44,63
6.52,56
6.6,69
6.68,65
6.76,57
6.84,56
6.92,75
7,59
7.08,59
7.16,59
7.24,59
7.32,57
7.4,60
7.48,73
7.56,67
7.64,67
7.72,68
7.8,66
7.88,73
7.96,70
8.04,62
8.12,73
8.2,70
8.28,72
8.36,67
8.44,63
8.52,72
8.6,70
8.68,73
8.76,66
8.84,70
8.92,61
9,58
9.08,59
9.16,66
9.24,57
9.32,58
9.4,64
9.48,58
9.56,59
9.64,58
9.72,57
9.8,59
9.88,73
9.96,66
10.04,63
10.12,67
10.2,76
10.28,63
10.36,63
10.44,57
10.52,69
10.6,65
10.68,56
10.76,56
10.84,74
10.92,58
11,70
11.08,65
11.16,60
11.24,60
11.32,58
11.4,60
11.48,72
11.56,73
11.64,58
11.72,75
11.8,69
11.88,70
11.96,64
12.04,76
12.12,76
12.2,85
12.28,109
12.36,178
12.44,186
12.52,88
12.6,69
12.68,65
12.76,60
12.84,62
12.92,74
13,74
13.08,59
13.16,75
13.24,69
13.32,69
13.4,71
13.48,64
13.56,68
13.64,76
13.72,64
13.8,64
13.88,57
13.96,71
14.04,64
14.12,68
14.2,75
14.28,63
14.36,64
14.44,56
14.52,69
14.6,64
14.68,55
14.76,54
14.84,73
14.92,57
15,67
15.08,64
15.16,58
15.24,58
15.32,55
15.4,59
15.48,72
15.56,72
15.64,61
15.72,60
15.8,53
15.88,66
15.96,62
16.04,53
16.12,52
16.2,71
16.28,55
16.36,66
16.44,62
16.52,57
16.6,57
16.68,54
16.76,58
16.84,69
16.92,70
17,56
17.08,55
17.16,55
17.24,56
17.32,54
17.4,56
17.48,69
17.56,64
17.64,64
17.72,64
17.8,62
17.88,71
17.96,67
18.04,69
18.12,67
18.2,70
18.28,63
18.36,67
18.44,59
18.52,55
18.6,56
18.68,63
18.76,54
18.84,56
18.92,61
19,55
19.08,67
19.16,69
19.24,63
19.32,67
19.4,59
19.48,54
19.56,56
19.64,63
19.72,54
19.8,55
19.88,61
19.96,55
20.04,55
20.12,55
20.2,54
20.28,56
20.36,69
20.44,63
20.52,63
20.6,73
20.68,66
20.76,61
20.84,56
20.92,56
21,53
21.08,57
21.16,67
21.24,68
21.32,53
21.4,70
21.48,66
21.56,72
21.64,74
21.72,61
21.8,64
21.88,63
21.96,65
22.04,60
22.12,51
22.2,52
22.28,53
22.36,54
22.44,53
22.52,55
22.6,68
22.68,63
22.76,64
22.84,64
22.92,62
23,71
23.08,68
23.16,60
23.24,71
23.32,69
23.4,72
23.48,66
23.56,71
23.64,61
23.72,58
23.8,60
23.88,69
23.96,60
24.04,61
24.12,76
24.2,70
24.28,76
24.36,88
24.44,81
24.52,89
24.6,94
24.68,133
24.76,181
24.84,361
24.92,912
25,2016
25.08,738
25.16,262
25.24,209
25.32,178
25.4,108
25.48,84
25.56,76
25.64,83
25.72,74
25.8,72
25.88,71
25.96,66
26.04,74
26.12,71
26.2,61
26.28,72
26.36,70
26.44,72
26.52,66
26.6,70
26.68,61
26.76,58
26.84,60
26.92,67
27,58
27.08,58
27.16,70
27.24,62
27.32,66
27.4,73
27.48,60
27.56,56
27.64,55
27.72,54
27.8,52
27.88,53
27.96,66
28.04,60
28.12,62
28.2,61
28.28,60
28.36,68
28.44,65
28.52,56
28.6,67
28.68,65
28.76,66
28.84,61
28.92,65
29,56
29.08,52
29.16,54
29.24,62
29.32,52
29.4,54
29.48,67
29.56,60
29.64,64
29.72,73
29.8,63
29.88,64
29.96,59
30.04,74
30.12,72
30.2,65
30.28,69
30.36,96
30.44,89
30.52,116
30.6,138
30.68,179
30.76,276
30.84,554
30.92,1697
31,2326
31.08,1292
31.16,453
31.24,243
31.32,160
31.4,123
31.48,99
31.56,90
31.64,93
31.72,87
31.8,67
31.88,82
31.96,73
32.04,72
32.12,73
32.2,65
32.28,67
32.36,75
32.44,63
32.52,60
32.6,52
32.68,63
32.76,61
32.84,54
32.92,57
33,81
33.08,73
33.16,87
33.24,116
33.32,190
33.4,427
33.48,799
33.56,669
33.64,272
33.72,155
33.8,113
33.88,96
33.96,80
34.04,79
34.12,66
34.2,60
34.28,60
34.36,68
34.44,58
34.52,57
34.6,63
34.68,56
34.76,55
34.84,57
34.92,56
35,60
35.08,73
35.16,69
35.24,71
35.32,75
35.4,81
35.48,107
35.56,174
35.64,396
35.72,373
35.8,153
35.88,90
35.96,71
36.04,67
36.12,74
36.2,67
36.28,71
36.36,80
36.44,68
36.52,70
36.6,65
36.68,80
36.76,79
36.84,73
36.92,77
37,101
37.08,92
37.16,112
37.24,121
37.32,133
37.4,157
37.48,193
37.56,296
37.64,482
37.72,981
37.8,2926
37.88,6573
37.96,5383
38.04,3249
38.12,3432
38.2,1727
38.28,717
38.36,390
38.44,254
38.52,180
38.6,140
38.68,126
38.76,121
38.84,104
38.92,94
39,83
39.08,78
39.16,71
39.24,73
39.32,82
39.4,79
39.48,63
39.56,79
39.64,72
39.72,71
39.8,72
39.88,65
39.96,69
40.04,75
40.12,59
40.2,70
40.28,63
40.36,67
40.44,75
40.52,63
40.6,63
40.68,56
40.76,69
40.84,66
40.92,57
41,55
41.08,76
41.16,60
41.24,73
41.32,74
41.4,72
41.48,81
41.56,90
41.64,121
41.72,149
41.8,205
41.88,357
41.96,921
42.04,1874
42.12,2076
42.2,805
42.28,430
42.36,250
42.44,153
42.52,109
42.6,93
42.68,93
42.76,84
42.84,62
42.92,77
43,68
43.08,65
43.16,65
43.24,60
43.32,63
43.4,71
43.48,64
43.56,70
43.64,70
43.72,99
43.8,123
43.88,192
43.96,434
44.04,826
44.12,901
44.2,1134
44.28,714
44.36,326
44.44,167
44.52,130
44.6,164
44.68,292
44.76,468
44.84,266
44.92,126
45,88
45.08,83
45.16,66
45.24,63
45.32,66
45.4,59
45.48,58
45.56,58
45.64,57
45.72,59
45.8,71
45.88,66
45.96,68
46.04,67
46.12,66
46.2,74
46.28,71
46.36,70
46.44,66
46.52,60
46.6,60
46.68,57
46.76,61
46.84,73
46.92,73
47,60
47.08,78
47.16,73
47.24,75
47.32,80
47.4,76
47.48,86
47.56,103
47.64,107
47.72,144
47.8,260
47.88,515
47.96,625
48.04,422
48.12,216
48.2,141
48.28,110
48.36,97
48.44,83
48.52,82
48.6,69
48.68,62
48.76,62
48.84,70
48.92,60
49,60
49.08,65
49.16,59
49.24,58
49.32,58
49.4,57
49.48,59
49.56,72
49.64,67
49.72,68
49.8,68
49.88,65
49.96,73
50.04,70
50.12,71
50.2,64
50.28,68
50.36,75
50.44,63
50.52,63
50.6,57
50.68,70
50.76,66
50.84,57
50.92,56
51,69
51.08,51
51.16,64
51.24,61
51.32,57
51.4,55
51.48,53
51.56,57
51.64,69
51.72,72
51.8,65
51.88,93
51.96,124
52.04,95
52.12,69
52.2,74
52.28,71
52.36,74
52.44,68
52.52,73
52.6,67
52.68,67
52.76,78
52.84,110
52.92,148
53,187
53.08,179
53.16,128
53.24,98
53.32,75
53.4,68
53.48,64
53.56,61
53.64,62
53.72,75
53.8,68
53.88,69
53.96,69
54.04,66
54.12,74
54.2,71
54.28,61
54.36,72
54.44,70
54.52,70
54.6,62
54.68,67
54.76,74
54.84,60
54.92,60
55,53
55.08,66
55.16,62
55.24,54
55.32,53
55.4,71
55.48,55
55.56,66
55.64,62
55.72,58
55.8,58
55.88,56
55.96,60
56.04,75
56.12,79
56.2,70
56.28,89
56.36,166
56.44,253
56.52,187
56.6,107
56.68,81
56.76,75
56.84,69
56.92,66
57,58
57.08,70
57.16,67
57.24,57
57.32,56
57.4,74
57.48,58
57.56,68
57.64,63
57.72,59
57.8,58
57.88,56
57.96,61
58.04,78
58.12,78
58.2,60
58.28,82
58.36,93
58.44,160
58.52,251
58.6,146
58.68,80
58.76,63
58.84,58
58.92,58
59,73
59.08,70
59.16,77
59.24,86
59.32,100
59.4,145
59.48,255
59.56,414
59.64,609
59.72,385
59.8,228
59.88,222
59.96,329
60.04,380
60.12,307
60.2,208
60.28,122
60.36,88
60.44,74
60.52,68
60.6,77
60.68,68
60.76,68
60.84,69
60.92,70
61,89
61.08,121
61.16,193
61.24,233
61.32,144
61.4,94
61.48,71
61.56,68
61.64,57
61.72,50
61.8,55
61.88,65
61.96,58
62.04,59
62.12,70
62.2,63
62.28,66
62.36,74
62.44,63
62.52,64
62.6,60
62.68,77
62.76,81
62.84,85
62.92,134
63,229
63.08,317
63.16,319
63.24,227
63.32,120
63.4,95
63.48,76
63.56,63
63.64,60
63.72,57
63.8,63
63.88,86
63.96,109
64.04,156
64.12,139
64.2,102
64.28,84
64.36,86
64.44,97
64.52,161
64.6,271
64.68,212
64.76,133
64.84,97
64.92,80
65,77
65.08,70
65.16,77
65.24,75
65.32,86
65.4,151
65.48,307
65.56,447
65.64,337
65.72,371
65.8,226
65.88,133
65.96,90
66.04,67
66.12,73
66.2,64
66.28,53
66.36,51
66.44,68
66.52,52
66.6,64
66.68,60
66.76,55
66.84,55
66.92,53
67,58
67.08,68
67.16,67
67.24,51
67.32,68
67.4,61
67.48,60
67.56,55
67.64,65
67.72,64
67.8,68
67.88,64
67.96,75
68.04,75
68.12,85
68.2,117
68.28,198
68.36,371
68.44,639
68.52,698
68.6,675
68.68,444
68.76,244
68.84,148
68.92,119
69,89
69.08,80
69.16,66
69.24,78
69.32,72
69.4,64
69.48,65
69.56,90
69.64,82
69.72,111
69.8,152
69.88,270
69.96,450
70.04,518
70.12,335
70.2,193
70.28,125
70.36,102
70.44,85
70.52,81
70.6,68
70.68,60
70.76,60
70.84,68
70.92,58
71,57
71.08,63
71.16,56
71.24,54
71.32,55
71.4,55
71.48,59
71.56,75
71.64,78
71.72,102
71.8,151
71.88,173
71.96,120
72.04,93
72.12,76
72.2,67
72.28,60
72.36,60
72.44,59
72.52,65
72.6,85
72.68,105
72.76,147
72.84,179
72.92,187
73,146
73.08,91
73.16,77
73.24,78
73.32,63
73.4,61
73.48,53
73.56,67
73.64,66
73.72,65
73.8,98
73.88,140
73.96,121
74.04,99
74.12,75
74.2,62
74.28,60
74.36,57
74.44,60
74.52,71
74.6,72
74.68,57
74.76,75
74.84,69
74.92,68
75,62
75.08,74
75.16,75
75.24,77
75.32,84
75.4,86
75.48,83
75.56,107
75.64,95
75.72,82
75.8,60
75.88,56
75.96,60
76.04,53
76.12,53
76.2,53
76.28,54
76.36,57
76.44,59
76.52,63
76.6,73
76.68,108
76.76,164
76.84,229
76.92,277
77,219
77.08,157
77.16,105
77.24,71
77.32,62
77.4,60
77.48,72
77.56,65
77.64,66
77.72,68
77.8,71
77.88,93
77.96,124
78.04,163
78.12,145
78.2,111
78.28,76
78.36,64
78.44,53
78.52,63
78.6,60
78.68,50
78.76,48
78.84,68
78.92,52
79,64
79.08,60
79.16,55
79.24,56
79.32,54
79.4,59
79.48,70
79.56,71
79.64,57
79.72,75
79.8,69
79.88,68
79.96,60
80.04,70
80.12,66
80.2,68
80.28,62
80.36,67
80.44,59
80.52,55
80.6,60
80.68,70
80.76,68
80.84,80
80.92,106
81,133
81.08,171
81.16,191
81.24,135
81.32,108
81.4,93
81.48,104
81.56,108
81.64,85
81.72,80
81.8,74
81.88,56
81.96,76
82.04,79
82.12,94
82.2,100
82.28,86
82.36,96
82.44,117
82.52,148
82.6,131
82.68,105
82.76,107
82.84,116
82.92,107
83,88
83.08,81
83.16,60
83.24,60
83.32,62
83.4,68
83.48,86
83.56,134
83.64,250
83.72,343
83.8,212
83.88,127
83.96,92
84.04,84
84.12,65
84.2,62
84.28,52
84.36,66
84.44,63
84.52,56
84.6,59
84.68,86
84.76,86
84.84,120
84.92,131
85,157
85.08,268
85.16,428
85.24,434
85.32,278
85.4,218
85.48,247
85.56,297
85.64,256
85.72,184
85.8,112
85.88,83
85.96,69
86.04,61
86.12,59
86.2,69
86.28,63
86.36,65
86.44,67
86.52,66
86.6,74
86.68,70
86.76,65
86.84,60
86.92,60
87,57
87.08,60
87.16,72
87.24,72
87.32,58
87.4,76
87.48,72
87.56,77
87.64,89
87.72,104
87.8,139
87.88,150
87.96,99
88.04,85
88.12,64
88.2,73
88.28,67
88.36,56
88.44,54
88.52,73
88.6,56
88.68,56
88.76,58
88.84,58
88.92,55
89,58
89.08,69
89.16,70
89.24,57
89.32,75
89.4,70
89.48,70
89.56,71
89.64,64
89.72,68
89.8,75
89.88,64
89.96,65
90.04,58
90.12,72
90.2,72
90.28,69
90.36,84
90.44,122
90.52,122
90.6,100
90.68,78
90.76,64
90.84,60
90.92,55
91,59
91.08,69
91.16,69
91.24,55
91.32,73
91.4,68
91.48,72
91.56,79
91.64,71
91.72,73
91.8,81
91.88,72
91.96,76
92.04,68
92.12,80
92.2,80
92.28,83
92.36,115
92.44,85
92.52,73
92.6,63
92.68,60
92.76,58
92.84,57
92.92,59
93,73
93.08,68
93.16,71
93.24,75
93.32,81
93.4,105
93.48,136
93.56,199
93.64,239
93.72,202
93.8,144
93.88,113
93.96,91
94.04,81
94.12,87
94.2,98
94.28,123
94.36,98
94.44,97
94.52,78
94.6,89
94.68,85
94.76,82
94.84,77
94.92,66
95,68
95.08,75
95.16,63
95.24,62
95.32,74
95.4,75
95.48,82
95.56,87
95.64,103
95.72,99
95.8,100
95.88,121
95.96,145
96.04,117
96.12,91
96.2,80
96.28,64
96.36,60
96.44,58
96.52,56
96.6,57
96.68,65
96.76,59
96.84,69
96.92,67
97,70
97.08,66
97.16,71
97.24,62
97.32,58
97.4,60
97.48,70
97.56,65
97.64,72
97.72,82
97.8,70
97.88,63
97.96,60
98.04,57
98.12,58
98.2,71
98.28,65
98.36,67
98.44,67
98.52,66
98.6,74
98.68,70
98.76,68
98.84,64
98.92,60
99,61
99.08,63
99.16,72
99.24,87
99.32,83
99.4,64
99.48,83
99.56,84
99.64,96
99.72,108
99.8,98
99.88,80
99.96,74
100.04,71
100.12,82
100.2,91
100.28,116
100.36,137
100.44,142
100.52,123
100.6,99
100.68,78
100.76,66
100.84,59
100.92,58
101,69
101.08,62
101.16,65
101.24,66
101.32,68
101.4,82
101.48,81
101.56,69
101.64,75
101.72,71
101.8,72
101.88,66
101.96,71
102.04,63
102.12,62
102.2,73
102.28,96
102.36,115
102.44,140
102.52,125
102.6,124
102.68,142
102.76,174
102.84,132
102.92,95
103,73
103.08,66
103.16,72
103.24,70
103.32,54
103.4,72
103.48,68
103.56,75
103.64,89
103.72,92
103.8,113
103.88,96
103.96,82
104.04,71
104.12,59
104.2,70
104.28,68
104.36,65
104.44,75
104.52,113
104.6,144
104.68,119
104.76,95
104.84,84
104.92,84
105,69
105.08,71
105.16,68
105.24,94
105.32,112
105.4,142
105.48,136
105.56,154
105.64,165
105.72,110
105.8,85
105.88,67
105.96,61
106.04,60
106.12,57
106.2,57
106.28,69
106.36,65
106.44,71
106.52,80
106.6,89
106.68,88
106.76,79
106.84,64
106.92,74
107,72
107.08,78
107.16,80
107.24,99
107.32,111
107.4,111
107.48,92
107.56,85
107.64,64
107.72,61
107.8,71
107.88,63
107.96,67
108.04,74
108.12,62
108.2,62
108.28,55
108.36,68
108.44,65
108.52,56
108.6,56
108.68,76
108.76,60
108.84,71
108.92,66
109,60
109.08,60
109.16,57
109.24,70
109.32,68
109.4,64
109.48,70
109.56,75
109.64,99
109.72,135
109.8,157
109.88,124
109.96,89
110.04,77
110.12,69
110.2,68
110.28,82
110.36,77
110.44,76
110.52,71
110.6,65
110.68,71
110.76,67
110.84,58
110.92,67
111,65
111.08,68
111.16,62
111.24,67
111.32,59
111.4,55
111.48,63
111.56,71
111.64,87
111.72,83
111.8,87
111.88,74
111.96,80
112.04,69
112.12,57
112.2,55
112.28,73
112.36,58
112.44,71
112.52,70
112.6,81
112.68,69
112.76,63
112.84,63
112.92,73
113,72
113.08,58
113.16,75
113.24,70
113.32,71
113.4,66
113.48,79
113.56,82
113.64,91
113.72,97
113.8,125
113.88,158
113.96,222
114.04,312
114.12,390
114.2,321
114.28,238
114.36,188
114.44,133
114.52,111
114.6,110
114.68,94
114.76,88
114.84,70
114.92,75
115,67
115.08,57
115.16,59
115.24,79
115.32,57
115.4,61
115.48,54
115.56,47
115.64,48
115.72,47
115.8,53
115.88,64
115.96,63
116.04,61
116.12,65
116.2,66
116.28,70
116.36,78
116.44,76
116.52,60
116.6,82
116.68,81
116.76,84
116.84,84
116.92,72
117,73
117.08,81
117.16,70
117.24,70
117.32,60
117.4,60
117.48,59
117.56,58
117.64,57
117.72,58
117.8,72
117.88,66
117.96,67
118.04,68
118.12,66
118.2,74
118.28,71
118.36,61
118.44,72
118.52,71
118.6,72
118.68,66
118.76,70
118.84,61
118.92,57
119,60
119.08,67
119.16,58
119.24,60
119.32,74
119.4,70
119.48,79
119.56,96
119.64,97
119.72,108
119.8,101
119.88,99
119.96,80
120,89