File: data/xrd_icdd_PDF/00-063-0405 (PD3).csv
5,510
5.08,547
5.16,510
5.24,556
5.32,446
5.4,446
5.48,437
5.56,492
5.64,419
5.72,310
5.8,465
5.88,383
5.96,364
6.04,364
6.12,401
6.2,437
6.28,374
6.36,392
6.44,364
6.52,328
6.6,410
6.68,346
6.76,364
6.84,264
6.92,310
7,310
7.08,292
7.16,310
7.24,273
7.32,282
7.4,318
7.48,262
7.56,292
7.64,318
7.72,319
7.8,282
7.88,310
7.96,301
8.04,306
8.12,309
8.2,300
8.28,292
8.36,237
8.44,273
8.52,273
8.6,240
8.68,273
8.76,255
8.84,219
8.92,219
9,282
9.08,220
9.16,273
9.24,228
9.32,220
9.4,282
9.48,228
9.56,191
9.64,219
9.72,210
9.8,255
9.88,273
9.96,219
10.04,220
10.12,200
10.2,219
10.28,255
10.36,210
10.44,232
10.52,219
10.6,200
10.68,246
10.76,237
10.84,292
10.92,364
11,565
11.08,938
11.16,711
11.24,264
11.32,155
11.4,164
11.48,164
11.56,146
11.64,200
11.72,164
11.8,200
11.88,182
11.96,200
12.04,146
12.12,164
12.2,182
12.28,191
12.36,200
12.44,173
12.52,182
12.6,219
12.68,200
12.76,164
12.84,219
12.92,146
13,109
13.08,182
13.16,182
13.24,164
13.32,91
13.4,128
13.48,173
13.56,200
13.64,173
13.72,164
13.8,164
13.88,191
13.96,146
14.04,164
14.12,200
14.2,228
14.28,164
14.36,255
14.44,155
14.52,155
14.6,200
14.68,146
14.76,128
14.84,182
14.92,164
15,173
15.08,146
15.16,128
15.24,164
15.32,164
15.4,182
15.48,146
15.56,173
15.64,146
15.72,146
15.8,182
15.88,182
15.96,210
16.04,182
16.12,182
16.2,146
16.28,109
16.36,191
16.44,128
16.52,146
16.6,91
16.68,146
16.76,109
16.84,200
16.92,173
17,182
17.08,191
17.16,128
17.24,210
17.32,164
17.4,200
17.48,319
17.56,583
17.64,501
17.72,528
17.8,328
17.88,182
17.96,155
18.04,128
18.12,200
18.2,182
18.28,109
18.36,128
18.44,146
18.52,164
18.6,146
18.68,128
18.76,146
18.84,155
18.92,146
19,128
19.08,182
19.16,164
19.24,182
19.32,200
19.4,146
19.48,146
19.56,155
19.64,146
19.72,146
19.8,173
19.88,109
19.96,128
20.04,128
20.12,128
20.2,109
20.28,164
20.36,100
20.44,118
20.52,146
20.6,146
20.68,146
20.76,164
20.84,155
20.92,137
21,160
21.08,180
21.16,182
21.24,183
21.32,113
21.4,142
21.48,168
21.56,165
21.64,121
21.72,141
21.8,171
21.88,181
21.96,146
22.04,146
22.12,128
22.2,155
22.28,128
22.36,219
22.44,164
22.52,128
22.6,182
22.68,146
22.76,146
22.84,146
22.92,128
23,146
23.08,128
23.16,128
23.24,137
23.32,173
23.4,146
23.48,155
23.56,128
23.64,200
23.72,164
23.8,200
23.88,182
23.96,237
24.04,364
24.12,838
24.2,997
24.28,531
24.36,302
24.44,176
24.52,217
24.6,218
24.68,228
24.76,237
24.84,228
24.92,392
25,319
25.08,200
25.16,200
25.24,273
25.32,155
25.4,164
25.48,198
25.56,198
25.64,199
25.72,128
25.8,157
25.88,183
25.96,180
26.04,135
26.12,156
26.2,188
26.28,199
26.36,208
26.44,200
26.52,164
26.6,219
26.68,191
26.76,182
26.84,146
26.92,200
27,237
27.08,255
27.16,191
27.24,219
27.32,228
27.4,200
27.48,228
27.56,273
27.64,401
27.72,1148
27.8,2924
27.88,2587
27.96,1002
28.04,465
28.12,328
28.2,328
28.28,368
28.36,517
28.44,1049
28.52,3268
28.6,3633
28.68,1834
28.76,747
28.84,401
28.92,310
29,300
29.08,276
29.16,245
29.24,246
29.32,178
29.4,233
29.48,237
29.56,210
29.64,211
29.72,231
29.8,240
29.88,220
29.96,205
30.04,240
30.12,208
30.2,232
30.28,256
30.36,221
30.44,223
30.52,286
30.6,273
30.68,328
30.76,337
30.84,528
30.92,929
31,2460
31.08,4355
31.16,6240
31.24,3070
31.32,820
31.4,547
31.48,455
31.56,401
31.64,383
31.72,328
31.8,410
31.88,401
31.96,510
32.04,811
32.12,1285
32.2,3134
32.28,10367
32.36,8327
32.44,3571
32.52,1713
32.6,2594
32.68,3399
32.76,2373
32.84,1477
32.92,1558
33,4245
33.08,8235
33.16,5284
33.24,3371
33.32,3088
33.4,1494
33.48,537
33.56,477
33.64,448
33.72,404
33.8,361
33.88,304
33.96,267
34.04,308
34.12,316
34.2,259
34.28,295
34.36,294
34.44,304
34.52,288
34.6,246
34.68,265
34.76,307
34.84,304
34.92,255
35,324
35.08,347
35.16,387
35.24,386
35.32,492
35.4,651
35.48,1236
35.56,3067
35.64,3068
35.72,2228
35.8,2761
35.88,7112
35.96,11186
36.04,7701
36.12,3109
36.2,1297
36.28,773
36.36,598
36.44,441
36.52,411
36.6,376
36.68,286
36.76,286
36.84,290
36.92,262
37,292
37.08,288
37.16,276
37.24,261
37.32,222
37.4,266
37.48,262
37.56,264
37.64,275
37.72,277
37.8,278
37.88,208
37.96,236
38.04,264
38.12,264
38.2,223
38.28,237
38.36,252
38.44,355
38.52,401
38.6,392
38.68,310
38.76,264
38.84,210
38.92,228
39,383
39.08,355
39.16,528
39.24,638
39.32,2569
39.4,4519
39.48,3170
39.56,1403
39.64,1121
39.72,2132
39.8,1348
39.88,738
39.96,346
40.04,292
40.12,328
40.2,346
40.28,401
40.36,838
40.44,856
40.52,765
40.6,683
40.68,1558
40.76,1530
40.84,1203
40.92,610
41,492
41.08,337
41.16,305
41.24,360
41.32,373
41.4,356
41.48,316
41.56,364
41.64,292
41.72,455
41.8,793
41.88,1995
41.96,1530
42.04,1594
42.12,2423
42.2,2441
42.28,1713
42.36,692
42.44,419
42.52,328
42.6,346
42.68,348
42.76,380
42.84,385
42.92,382
43,421
43.08,427
43.16,593
43.24,685
43.32,820
43.4,911
43.48,2715
43.56,4974
43.64,4254
43.72,2350
43.8,1130
43.88,619
43.96,455
44.04,364
44.12,348
44.2,376
44.28,362
44.36,321
44.44,312
44.52,324
44.6,327
44.68,301
44.76,278
44.84,306
44.92,272
45,296
45.08,326
45.16,277
45.24,263
45.32,307
45.4,294
45.48,309
45.56,256
45.64,337
45.72,378
45.8,449
45.88,484
45.96,583
46.04,465
46.12,292
46.2,328
46.28,237
46.36,474
46.44,692
46.52,455
46.6,301
46.68,237
46.76,273
46.84,292
46.92,328
47,410
47.08,492
47.16,638
47.24,875
47.32,2168
47.4,1931
47.48,1603
47.56,865
47.64,437
47.72,392
47.8,301
47.88,200
47.96,237
48.04,219
48.12,182
48.2,200
48.28,182
48.36,164
48.44,146
48.52,264
48.6,255
48.68,401
48.76,264
48.84,255
48.92,292
49,346
49.08,437
49.16,310
49.24,237
49.32,264
49.4,219
49.48,173
49.56,219
49.64,200
49.72,237
49.8,259
49.88,272
49.96,297
50.04,304
50.12,311
50.2,246
50.28,256
50.36,241
50.44,297
50.52,286
50.6,274
50.68,322
50.76,332
50.84,384
50.92,364
51,465
51.08,374
51.16,273
51.24,219
51.32,219
51.4,237
51.48,219
51.56,273
51.64,228
51.72,200
51.8,292
51.88,364
51.96,455
52.04,605
52.12,1035
52.2,1844
52.28,1390
52.36,1305
52.44,1035
52.52,953
52.6,793
52.68,688
52.76,547
52.84,601
52.92,1020
53,720
53.08,647
53.16,474
53.24,619
53.32,692
53.4,783
53.48,619
53.56,528
53.64,301
53.72,310
53.8,210
53.88,317
53.96,311
54.04,400
54.12,407
54.2,358
54.28,394
54.36,420
54.44,507
54.52,638
54.6,1020
54.68,911
54.76,820
54.84,501
54.92,519
55,444
55.08,465
55.16,497
55.24,524
55.32,507
55.4,743
55.48,1211
55.56,1075
55.64,1163
55.72,1312
55.8,1075
55.88,893
55.96,528
56.04,346
56.12,282
56.2,328
56.28,355
56.36,346
56.44,328
56.52,319
56.6,346
56.68,383
56.76,583
56.84,537
56.92,594
57,573
57.08,624
57.16,533
57.24,497
57.32,609
57.4,1005
57.48,1221
57.56,1130
57.64,1822
57.72,1458
57.8,984
57.88,701
57.96,383
58.04,474
58.12,473
58.2,422
58.28,372
58.36,366
58.44,517
58.52,579
58.6,453
58.68,459
58.76,387
58.84,367
58.92,342
59,296
59.08,327
59.16,390
59.24,380
59.32,336
59.4,421
59.48,530
59.56,541
59.64,464
59.72,498
59.8,433
59.88,419
59.96,337
60.04,200
60.12,273
60.2,273
60.28,455
60.36,510
60.44,383
60.52,383
60.6,292
60.68,228
60.76,310
60.84,228
60.92,355
61,492
61.08,811
61.16,820
61.24,610
61.32,519
61.4,392
61.48,346
61.56,273
61.64,219
61.72,255
61.8,237
61.88,200
61.96,237
62.04,273
62.12,292
62.2,374
62.28,364
62.36,519
62.44,565
62.52,483
62.6,510
62.68,856
62.76,665
62.84,647
62.92,1002
63,1367
63.08,1121
63.16,947
63.24,1093
63.32,1166
63.4,765
63.48,692
63.56,455
63.64,374
63.72,264
63.8,328
63.88,402
63.96,329
64.04,377
64.12,390
64.2,371
64.28,315
64.36,318
64.44,345
64.52,360
64.6,310
64.68,383
64.76,419
64.84,583
64.92,1057
65,783
65.08,701
65.16,583
65.24,292
65.32,310
65.4,357
65.48,356
65.56,290
65.64,351
65.72,362
65.8,348
65.88,373
65.96,440
66.04,510
66.12,547
66.2,884
66.28,1093
66.36,674
66.44,793
66.52,665
66.6,455
66.68,638
66.76,583
66.84,401
66.92,674
67,656
67.08,1011
67.16,619
67.24,565
67.32,465
67.4,292
67.48,292
67.56,383
67.64,292
67.72,392
67.8,410
67.88,359
67.96,311
68.04,338
68.12,345
68.2,292
68.28,325
68.36,323
68.44,330
68.52,311
68.6,266
68.68,289
68.76,337
68.84,327
68.92,265
69,324
69.08,327
69.16,332
69.24,284
69.32,311
69.4,303
69.48,339
69.56,297
69.64,315
69.72,247
69.8,257
69.88,288
69.96,277
70.04,289
70.12,321
70.2,304
70.28,368
70.36,442
70.44,415
70.52,479
70.6,445
70.68,406
70.76,400
70.84,325
70.92,398
71,456
71.08,564
71.16,811
71.24,583
71.32,665
71.4,637
71.48,496
71.56,454
71.64,529
71.72,498
71.8,475
71.88,492
71.96,476
72.04,434
72.12,533
72.2,697
72.28,847
72.36,801
72.44,719
72.52,673
72.6,565
72.68,603
72.76,633
72.84,699
72.92,727
73,593
73.08,522
73.16,467
73.24,515
73.32,488
73.4,563
73.48,539
73.56,554
73.64,596
73.72,457
73.8,377
73.88,360
73.96,307
74.04,331
74.12,341
74.2,284
74.28,286
74.36,270
74.44,295
74.52,341
74.6,313
74.68,319
74.76,383
74.84,638
74.92,1011
75,1039
75.08,802
75.16,774
75.24,738
75.32,574
75.4,492
75.48,410
75.56,510
75.64,592
75.72,465
75.8,410
75.88,401
75.96,346
76.04,346
76.12,383
76.2,428
76.28,510
76.36,328
76.44,455
76.52,610
76.6,537
76.68,401
76.76,374
76.84,474
76.92,492
77,383
77.08,601
77.16,547
77.24,537
77.32,701
77.4,701
77.48,802
77.56,674
77.64,683
77.72,437
77.8,455
77.88,401
77.96,346
78.04,319
78.12,246
78.2,255
78.28,346
78.36,273
78.44,383
78.52,383
78.6,401
78.68,455
78.76,574
78.84,565
78.92,565
79,583
79.08,592
79.16,455
79.24,401
79.32,410
79.4,629
79.48,474
79.56,419
79.64,383
79.72,401
79.8,273
79.88,337
79.96,401
80.04,565
80.12,884
80.2,711
80.28,583
80.36,656
80.44,501
80.52,446
80.6,428
80.68,329
80.76,378
80.84,401
80.92,419
81,445
81.08,445
81.16,454
81.24,459
81.32,484
81.4,621
81.48,721
81.56,724
81.64,662
81.72,600
81.8,556
81.88,565
81.96,522
82.04,543
82.12,461
82.2,420
82.28,446
82.36,480
82.44,472
82.52,410
82.6,383
82.68,337
82.76,413
82.84,313
82.92,335
83,387
83.08,435
83.16,409
83.24,394
83.32,404
83.4,400
83.48,375
83.56,281
83.64,276
83.72,254
83.8,303
83.88,289
83.96,279
84.04,327
84.12,312
84.2,327
84.28,301
84.36,337
84.44,372
84.52,412
84.6,390
84.68,403
84.76,358
84.84,321
84.92,317
85,275
85.08,282
85.16,252
85.24,246
85.32,241
85.4,282
85.48,285
85.56,290
85.64,240
85.72,261
85.8,237
85.88,219
85.96,328
86.04,282
86.12,328
86.2,255
86.28,328
86.36,437
86.44,474
86.52,328
86.6,301
86.68,428
86.76,264
86.84,292
86.92,273
87,282
87.08,219
87.16,264
87.24,310
87.32,319
87.4,419
87.48,401
87.56,328
87.64,383
87.72,401
87.8,328
87.88,328
87.96,264
88.04,310
88.12,264
88.2,428
88.28,428
88.36,383
88.44,328
88.52,346
88.6,273
88.68,282
88.76,210
88.84,255
88.92,182
89,228
89.08,255
89.16,219
89.24,346
89.32,292
89.4,282
89.48,492
89.56,446
89.64,310
89.72,328
89.8,437
89.88,401
89.96,401
90.04,374
90.12,301
90.2,328
90.28,392
90.36,255
90.44,255
90.52,310
90.6,310
90.68,273
90.76,364
90.84,364
90.92,310
91,282
91.08,255
91.16,273
91.24,255
91.32,182
91.4,310
91.48,246
91.56,237
91.64,337
91.72,273
91.8,200
91.88,255
91.96,264
92.04,228
92.12,292
92.2,292
92.28,346
92.36,337
92.44,364
92.52,364
92.6,355
92.68,364
92.76,301
92.84,292
92.92,219
93,264
93.08,237
93.16,219
93.24,301
93.32,346
93.4,346
93.48,255
93.56,319
93.64,355
93.72,364
93.8,292
93.88,282
93.96,310
94.04,364
94.12,346
94.2,455
94.28,419
94.36,437
94.44,401
94.52,383
94.6,446
94.68,437
94.76,383
94.84,419
94.92,437
95,419
95.08,419
95.16,410
95.24,310
95.32,346
95.4,355
95.48,364
95.56,455
95.64,465
95.72,565
95.8,547
95.88,547
95.96,638
96.04,528
96.12,474
96.2,483
96.28,446
96.36,310
96.44,374
96.52,401
96.6,319
96.68,273
96.76,292
96.84,219
96.92,292
97,200
97.08,219
97.16,237
97.24,210
97.32,219
97.4,219
97.48,219
97.56,164
97.64,237
97.72,219
97.8,246
97.88,237
97.96,264
98.04,164
98.12,200
98.2,200
98.28,200
98.36,200
98.44,182
98.52,200
98.6,273
98.68,282
98.76,310
98.84,282
98.92,346
99,364
99.08,374
99.16,374
99.24,364
99.32,282
99.4,310
99.48,319
99.56,328
99.64,264
99.72,319
99.8,328
99.88,364
99.96,401
100.04,355
100.12,328
100.2,364
100.28,401
100.36,346
100.44,364
100.52,328
100.6,255
100.68,346
100.76,328
100.84,437
100.92,419
101,392
101.08,310
101.16,374
101.24,355
101.32,337
101.4,255
101.48,301
101.56,392
101.64,364
101.72,401
101.8,273
101.88,364
101.96,474
102.04,374
102.12,401
102.2,346
102.28,355
102.36,374
102.44,346
102.52,292
102.6,328
102.68,292
102.76,355
102.84,428
102.92,446
103,401
103.08,528
103.16,474
103.24,483
103.32,401
103.4,392
103.48,328
103.56,374
103.64,437
103.72,401
103.8,364
103.88,437
103.96,383
104.04,273
104.12,310
104.2,383
104.28,273
104.36,273
104.44,292
104.52,200
104.6,374
104.68,328
104.76,328
104.84,273
104.92,383
105,437
105.08,401
105.16,346
105.24,401
105.32,428
105.4,483
105.48,501
105.56,455
105.64,446
105.72,437
105.8,401
105.88,383
105.96,455
106.04,346
106.12,401
106.2,364
106.28,328
106.36,401
106.44,301
106.52,292
106.6,292
106.68,328
106.76,292
106.84,392
106.92,364
107,346
107.08,301
107.16,310
107.24,273
107.32,419
107.4,292
107.48,310
107.56,237
107.64,246
107.72,292
107.8,200
107.88,255
107.96,328
108.04,237
108.12,255
108.2,273
108.28,364
108.36,328
108.44,292
108.52,337
108.6,383
108.68,364
108.76,401
108.84,328
108.92,292
109,301
109.08,328
109.16,383
109.24,364
109.32,273
109.4,273
109.48,346
109.56,264
109.64,273
109.72,364
109.8,328
109.88,292
109.96,328
110.04,374
110.12,346
110.2,383
110.28,392
110.36,328
110.44,310
110.52,255
110.6,337
110.68,328
110.76,273
110.84,282
110.92,401
111,364
111.08,346
111.16,437
111.24,364
111.32,383
111.4,392
111.48,455
111.56,301
111.64,328
111.72,292
111.8,282
111.88,364
111.96,383
112.04,528
112.12,437
112.2,656
112.28,610
112.36,556
112.44,492
112.52,492
112.6,510
112.68,465
112.76,419
112.84,364
112.92,392
113,346
113.08,419
113.16,346
113.24,346
113.32,310
113.4,346
113.48,355
113.56,346
113.64,319
113.72,355
113.8,383
113.88,483
113.96,455
114.04,601
114.12,583
114.2,574
114.28,428
114.36,455
114.44,419
114.52,474
114.6,455
114.68,510
114.76,428
114.84,510
114.92,474
115,383
115.08,419
115.16,401
115.24,474
115.32,401
115.4,374
115.48,310
115.56,419
115.64,383
115.72,310
115.8,237
115.88,374
115.96,383
116.04,446
116.12,364
116.2,383
116.28,474
116.36,474
116.44,401
116.52,364
116.6,437
116.68,492
116.76,619
116.84,510
116.92,547
117,528
117.08,401
117.16,565
117.24,583
117.32,510
117.4,492
117.48,510
117.56,455
117.64,474
117.72,392
117.8,364
117.88,346
117.96,310
118.04,328
118.12,364
118.2,246
118.28,255
118.36,346
118.44,374
118.52,264
118.6,401
118.68,419
118.76,455
118.84,419
118.92,437
119,392
119.08,528
119.16,465
119.24,474
119.32,364
119.4,401
119.48,474
119.56,465
119.64,510
119.72,437
119.8,401
119.88,355
119.92,328