File: data/xrd_icdd_PDF/00-064-0241 (PD3).csv
20.0324,93.4953
20.0834,115.7675
20.1344,107.6313
20.1854,90.9064
20.2364,95.5351
20.2874,101.8888
20.3384,109.052
20.3894,101.474
20.4404,103.5506
20.4914,100.4134
20.5424,101.5416
20.5934,98.2817
20.6444,97.4808
20.6954,107.6269
20.7464,93.1954
20.7974,80.0837
20.8484,96.5226
20.8994,83.7161
20.9504,88.7963
21.0014,99.9966
21.0524,97.0342
21.1034,91.1008
21.1544,89.6253
21.2054,99.587
21.2564,109.2468
21.3074,91.4303
21.3584,96.791
21.4094,89.8388
21.4604,103.9652
21.5114,94.2807
21.5624,103.8858
21.6134,102.4954
21.6644,106.8206
21.7154,152.1643
21.7664,136.8737
21.8174,109.8368
21.8684,96.0057
21.9194,95.2811
21.9704,74.9521
22.0214,84.1602
22.0724,80.6297
22.1234,96.1471
22.1744,80.5588
22.2254,88.2412
22.2764,77.7507
22.3274,78.3947
22.3784,91.0054
22.4294,82.8092
22.4804,91.5845
22.5314,95.9085
22.5824,86.7821
22.6334,88.8626
22.6844,85.5582
22.7354,87.0627
22.7864,84.405
22.8374,83.873
22.8884,90.9937
22.9394,84.118
22.9904,61.24
23.0414,75.5797
23.0924,78.0876
23.1434,79.1092
23.1944,77.3795
23.2454,72.5698
23.2964,78.3265
23.3474,71.6178
23.3984,70.7927
23.4494,79.5146
23.5004,66.706
23.5514,73.8085
23.6024,82.9416
23.6534,74.2985
23.7044,78.5
23.7554,72.2004
23.8064,81.1222
23.8574,82.7575
23.9084,64.917
23.9594,72.9281
24.0104,57.0877
24.0614,63.0215
24.1124,69.6598
24.1634,75.0544
24.2144,72.2995
24.2654,83.1476
24.3164,69.4352
24.3674,49.7666
24.4184,66.7031
24.4694,79.2718
24.5204,78.6316
24.5714,65.6343
24.6224,68.3982
24.6734,64.0784
24.7244,75.5002
24.7754,64.8416
24.8264,65.6588
24.8774,74.477
24.9284,69.8149
24.9794,74.9143
25.0304,67.512
25.0814,67.4502
25.1324,72.6004
25.1834,62.023
25.2344,69.6919
25.2854,57.7156
25.3364,73.4039
25.3874,61.319
25.4384,67.027
25.4894,60.6164
25.5404,66.156
25.5914,55.6592
25.6424,52.252
25.6934,68.9132
25.7444,63.342
25.7954,63.1175
25.8464,75.9307
25.8974,56.9814
25.9484,51.4516
25.9994,56.7518
26.0504,57.5341
26.1014,55.1092
26.1524,66.2922
26.2034,64.9104
26.2544,59.0035
26.3054,54.9607
26.3564,61.2178
26.4074,47.4701
26.4584,54.6169
26.5094,62.8034
26.5604,60.7372
26.6114,58.596
26.6624,63.174
26.7134,60.9298
26.7644,52.2786
26.8154,56.2638
26.8664,54.6316
26.9174,48.1354
26.9684,64.7304
27.0194,50.0686
27.0704,56.4863
27.1214,57.5606
27.1724,43.9148
27.2234,51.6545
27.2744,67.5066
27.3254,52.5459
27.3764,53.6724
27.4274,61.86
27.4784,61.4003
27.5294,52.8174
27.5804,61.512
27.6314,53.891
27.6824,43.9116
27.7334,56.3464
27.7844,53.5805
27.8354,58.8465
27.8864,48.0071
27.9374,49.1
27.9884,49.7965
28.0394,54.5166
28.0904,46.4511
28.1414,53.2558
28.1924,53.4503
28.2434,53.4667
28.2944,49.6129
28.3454,50.469
28.3964,53.0328
28.4474,49.1302
28.4984,59.4028
28.5494,52.6966
28.6004,45.4704
28.6514,45.4619
28.7024,56.0575
28.7534,46.7869
28.8044,44.8676
28.8554,43.0913
28.9064,35.613
28.9574,56.5944
29.0084,45.6968
29.0594,56.7289
29.1104,55.8051
29.1614,77.7414
29.2124,141.8422
29.2634,120.4172
29.3144,95.3005
29.3654,69.472
29.4164,56.0126
29.4674,44.7848
29.5184,58.5092
29.5694,49.0979
29.6204,39.0926
29.6714,56.0217
29.7224,36.4601
29.7734,51.2589
29.8244,42.3056
29.8754,51.9131
29.9264,45.0756
29.9774,31.1204
30.0284,54.2954
30.0794,46.6272
30.1304,41.4374
30.1814,40.6506
30.2324,45.543
30.2834,50.2602
30.3344,55.7972
30.3854,43.6206
30.4364,44.6767
30.4874,50.0739
30.5384,38.5746
30.5894,48.944
30.6404,40.3902
30.6914,43.3444
30.7424,52.3945
30.7934,51.3189
30.8444,45.0674
30.8954,31.2139
30.9464,42.2311
30.9974,40.6796
31.0484,48.2317
31.0994,40.0577
31.1504,46.8838
31.2014,40.0485
31.2524,41.9461
31.3034,46.555
31.3544,46.672
31.4054,44.4859
31.4564,45.1898
31.5074,42.6382
31.5584,43.8031
31.6094,47.9194
31.6604,37.4591
31.7114,39.5503
31.7624,34.7317
31.8134,41.9931
31.8644,33.47
31.9154,42.375
31.9664,44.5363
32.0174,38.0078
32.0684,37.0053
32.1194,35.5853
32.1704,37.3514
32.2214,39.5116
32.2724,34.2919
32.3234,41.9977
32.3744,37.3154
32.4254,45.1888
32.4764,30.3541
32.5274,41.4304
32.5784,35.8391
32.6294,38.727
32.6804,43.1258
32.7314,35.227
32.7824,49.6311
32.8334,31.9435
32.8844,39.5313
32.9354,32.3911
32.9864,46.2774
33.0374,44.3036
33.0884,34.1438
33.1394,41.351
33.1904,41.7781
33.2414,37.4266
33.2924,42.4293
33.3434,40.546
33.3944,46.8004
33.4454,39.8933
33.4964,35.2854
33.5474,38.4918
33.5984,46.008
33.6494,52.4236
33.7004,39.5404
33.7514,45.5121
33.8024,48.8874
33.8534,42.5505
33.9044,46.9554
33.9554,43.333
34.0064,43.0317
34.0574,38.9979
34.1084,46.1197
34.1594,40.7485
34.2104,41.7267
34.2614,46.2194
34.3124,47.6923
34.3634,51.9963
34.4144,51.8743
34.4654,45.8816
34.5164,40.8523
34.5674,52.2715
34.6184,55.9357
34.6694,47.4641
34.7204,58.2302
34.7714,52.0028
34.8224,52.5816
34.8734,74.7947
34.9244,106.5192
34.9754,128.2701
35.0264,133.0898
35.0774,138.6083
35.1284,153.2686
35.1794,161.0264
35.2304,312.473
35.2814,523.6092
35.3324,370.9035
35.3834,318.0829
35.4344,143.8679
35.4854,77.3233
35.5364,63.1014
35.5874,56.302
35.6384,37.9217
35.6894,43.557
35.7404,55.8144
35.7914,41.4336
35.8424,55.5698
35.8934,35.6847
35.9444,43.8725
35.9954,44.0704
36.0464,44.412
36.0974,40.5167
36.1484,47.8188
36.1994,40.5495
36.2504,35.4982
36.3014,41.0009
36.3524,32.243
36.4034,31.1772
36.4544,41.9785
36.5054,40.9701
36.5564,45.2419
36.6074,42.8606
36.6584,37.6575
36.7094,48.5962
36.7604,41.9243
36.8114,47.3651
36.8624,34.3646
36.9134,30.7014
36.9644,36.5465
37.0154,42.9438
37.0664,29.3051
37.1174,42.1939
37.1684,38.5331
37.2194,30.9383
37.2704,30.6376
37.3214,40.8206
37.3724,34.9195
37.4234,30.8441
37.4744,32.7498
37.5254,40.8344
37.5764,28.7593
37.6274,41.8063
37.6784,40.5324
37.7294,38.9628
37.7804,43.7222
37.8314,39.6769
37.8824,35.6416
37.9334,37.1035
37.9844,35.8352
38.0354,49.282
38.0864,33.9719
38.1374,35.0131
38.1884,35.3602
38.2394,43.2699
38.2904,34.5578
38.3414,33.7499
38.3924,32.6438
38.4434,35.464
38.4944,38.1209
38.5454,46.4832
38.5964,49.0833
38.6474,38.8065
38.6984,61.0204
38.7494,61.2361
38.8004,73.2515
38.8514,59.5735
38.9024,46.6298
38.9534,44.4921
39.0044,49.8087
39.0554,51.1548
39.1064,55.4409
39.1574,59.5421
39.2084,107.0957
39.2594,105.597
39.3104,86.0458
39.3614,76.7415
39.4124,98.7234
39.4634,71.7467
39.5144,58.917
39.5654,70.0121
39.6164,63.7596
39.6674,72.5091
39.7184,52.1703
39.7694,67.9196
39.8204,43.9352
39.8714,64.9787
39.9224,71.3713
39.9734,68.8513
40.0244,82.9954
40.0754,95.8705
40.1264,94.2238
40.1774,96.1215
40.2284,122.8806
40.2794,160.5355
40.3304,222.683
40.3814,294.7745
40.4324,484.2641
40.4834,1296.515
40.5344,2964.105
40.5854,1861.934
40.6364,1779.651
40.6874,1063.736
40.7384,465.9625
40.7894,285.7626
40.8404,222.1919
40.8914,152.2561
40.9424,108.0187
40.9934,120.4293
41.0444,93.4088
41.0954,84.2065
41.1464,76.3459
41.1974,72.6058
41.2484,68.6344
41.2994,71.6277
41.3504,75.013
41.4014,85.641
41.4524,95.9947
41.5034,113.9247
41.5544,134.5227
41.6054,214.0368
41.6564,461.2219
41.7074,962.9098
41.7584,740.1032
41.8094,795.5339
41.8604,1220.794
41.9114,1686.736
41.9624,956.5273
42.0134,1012.145
42.0644,471.2402
42.1154,228.6026
42.1664,154.8899
42.2174,115.1229
42.2684,90.1311
42.3194,74.9959
42.3704,71.276
42.4214,71.8914
42.4724,75.4841
42.5234,51.362
42.5744,65.2867
42.6254,46.1008
42.6764,49.3085
42.7274,55.2506
42.7784,52.593
42.8294,51.6765
42.8804,49.7239
42.9314,50.3547
42.9824,40.9716
43.0334,46.3612
43.0844,42.6819
43.1354,56.0068
43.1864,70.9961
43.2374,88.6163
43.2884,101.6064
43.3394,85.9463
43.3904,70.617
43.4414,55.116
43.4924,67.9512
43.5434,57.2072
43.5944,58.2118
43.6454,64.1241
43.6964,78.2674
43.7474,83.4417
43.7984,107.9082
43.8494,113.2429
43.9004,135.2675
43.9514,170.7972
44.0024,336.9507
44.0534,792.0449
44.1044,1059.753
44.1554,635.6363
44.2064,806.7956
44.2574,626.5775
44.3084,382.1807
44.3594,267.5691
44.4104,227.2657
44.4614,121.3155
44.5124,86.3622
44.5634,85.0973
44.6144,74.9951
44.6654,70.8912
44.7164,85.0562
44.7674,89.7451
44.8184,89.3855
44.8694,100.6169
44.9204,82.1649
44.9714,114.3573
45.0224,152.1034
45.0734,211.9729
45.1244,265.367
45.1754,461.8856
45.2264,1125.62
45.2774,2178.24
45.3284,1371.215
45.3794,1246.913
45.4304,949.6026
45.4814,321.3002
45.5324,203.3787
45.5834,155.0994
45.6344,108.7704
45.6854,80.3523
45.7364,73.4067
45.7874,56.0612
45.8384,51.7311
45.8894,48.2939
45.9404,49.3769
45.9914,49.2117
46.0424,39.7378
46.0934,42.4859
46.1444,45.8977
46.1954,40.2501
46.2464,40.3165
46.2974,43.5751
46.3484,38.0066
46.3994,33.1091
46.4504,42.0649
46.5014,44.1026
46.5524,47.8786
46.6034,30.1752
46.6544,38.8499
46.7054,34.1312
46.7564,35.7172
46.8074,27.0637
46.8584,39.591
46.9094,30.9975
46.9604,35.0061
47.0114,37.6768
47.0624,36.3966
47.1134,32.7893
47.1644,36.4057
47.2154,35.0843
47.2664,32.9099
47.3174,34.7538
47.3684,33.9932
47.4194,26.9985
47.4704,26.6124
47.5214,26.5051
47.5724,26.0609
47.6234,21.4106
47.6744,24.2201
47.7254,26.3542
47.7764,31.4982
47.8274,29.9983
47.8784,24.5891
47.9294,31.4161
47.9804,31.2633
48.0314,26.0514
48.0824,27.7007
48.1334,26.9985
48.1844,37.9495
48.2354,46.8067
48.2864,46.1366
48.3374,48.6873
48.3884,50.8336
48.4394,52.6877
48.4904,65.8763
48.5414,101.848
48.5924,134.1236
48.6434,234.1981
48.6944,581.189
48.7454,587.5105
48.7964,328.2289
48.8474,384.0117
48.8984,197.4585
48.9494,100.149
49.0004,56.3721
49.0514,49.9069
49.1024,45.9312
49.1534,43.156
49.2044,38.3321
49.2554,29.7002
49.3064,38.3819
49.3574,27.8197
49.4084,35.3874
49.4594,42.5464
49.5104,35.2078
49.5614,34.8557
49.6124,42.8369
49.6634,31.7247
49.7144,29.5502
49.7654,43.4127
49.8164,32.5879
49.8674,31.7501
49.9184,35.2154
49.9694,27.4417
50.0204,34.0159
50.0714,36.5594
50.1224,39.7873
50.1734,47.1421
50.2244,41.7933
50.2754,47.3097
50.3264,50.3549
50.3774,54.2853
50.4284,88.4587
50.4794,101.9939
50.5304,131.4453
50.5814,244.6382
50.6324,513.0945
50.6834,675.6673
50.7344,553.6872
50.7854,844.4023
50.8364,1136.216
50.8874,587.8944
50.9384,517.7095
50.9894,453.3691
51.0404,215.4964
51.0914,110.4885
51.1424,85.7245
51.1934,67.1456
51.2444,45.7805
51.2954,45.0431
51.3464,40.5256
51.3974,40.9477
51.4484,39.7832
51.4994,37.9786
51.5504,33.1483
51.6014,34.6175
51.6524,30.4591
51.7034,26.149
51.7544,30.4318
51.8054,32.9982
51.8564,24.3596
51.9074,25.5857
51.9584,24.7516
52.0094,28.9655
52.0604,25.4519
52.1114,25.8593
52.1624,25.7243
52.2134,16.7229
52.2644,17.5877
52.3154,26.0755
52.3664,24.1194
52.4174,27.1726
52.4684,13.1685
52.5194,26.9637
52.5704,26.5709
52.6214,25.6143
52.6724,26.9049
52.7234,30.0678
52.7744,27.9412
52.8254,18.5784
52.8764,20.6012
52.9274,21.0036
52.9784,19.0015
53.0294,20.2116
53.0804,24.1835
53.1314,22.342
53.1824,23.1246
53.2334,24.196
53.2844,16.068
53.3354,20.6783
53.3864,24.5787
53.4374,29.87
53.4884,23.3335
53.5394,33.5048
53.5904,42.6
53.6414,49.3253
53.6924,92.7832
53.7434,190.0898
53.7944,226.6894
53.8454,132.9053
53.8964,132.5081
53.9474,108.0919
53.9984,65.4584
54.0494,34.5598
54.1004,28.0919
54.1514,23.3856
54.2024,27.9614
54.2534,35.3828
54.3044,25.8114
54.3554,20.9988
54.4064,20.188
54.4574,20.0125
54.5084,12.8983
54.5594,16.2153
54.6104,18.8791
54.6614,24.7925
54.7124,20.1073
54.7634,21.0525
54.8144,29.0393
54.8654,17.4222
54.9164,17.6501
54.9674,16.136
55.0184,17.7268
55.0694,28.8887
55.1204,20.964
55.1714,18.7612
55.2224,12.4011
55.2734,19.8327
55.3244,21.4853
55.3754,14.4363
55.4264,32.9303
55.4774,24.4654
55.5284,27.7197
55.5794,19.7367
55.6304,17.5931
55.6814,22.5085
55.7324,27.6982
55.7834,19.7033
55.8344,19.5994
55.8854,23.8084
55.9364,23.0293
55.9874,19.0033
56.0384,19.554
56.0894,21.3464
56.1404,21.5688
56.1914,20.8373
56.2424,16.7292
56.2934,22.0349
56.3444,25.3867
56.3954,18.2584
56.4464,14.1543
56.4974,24.7654
56.5484,27.4799
56.5994,27.9123
56.6504,41.4959
56.7014,43.8487
56.7524,56.0631
56.8034,92.57
56.8544,109.4201
56.9054,56.0421
56.9564,69.8351
57.0074,65.0557
57.0584,40.5745
57.1094,33.6964
57.1604,27.7627
57.2114,32.4597
57.2624,24.9986
57.3134,26.7202
57.3644,22.6155
57.4154,31.7955
57.4664,21.6871
57.5174,26.2275
57.5684,33.8375
57.6194,49.1251
57.6704,73.5358
57.7214,61.215
57.7724,46.6128
57.8234,50.8702
57.8744,41.9523
57.9254,27.0684
57.9764,26.8368
58.0274,22.366
58.0784,29.0072
58.1294,21.0036
58.1804,23.7516
58.2314,30.2399
58.2824,34.0265
58.3334,30.9851
58.3844,28.9984
58.4354,39.903
58.4864,46.6925
58.5374,78.595
58.5884,99.9515
58.6394,89.2117
58.6904,104.8208
58.7414,163.541
58.7924,117.5833
58.8434,84.6924
58.8944,99.2676
58.9454,99.4288
58.9964,68.2906
59.0474,53.6156
59.0984,51.5178
59.1494,40.9055
59.2004,31.3985
59.2514,32.1422
59.3024,35.212
59.3534,20.0185
59.4044,28.8373
59.4554,20.5877
59.5064,19.8194
59.5574,24.2479
59.6084,20.7176
59.6594,19.6223
59.7104,22.9103
59.7614,15.209
59.8124,17.8703
59.8634,17.5043
59.9144,14.6508
59.9654,17.5893
60.0164,19.7643
60.0674,18.1213
60.1184,22.2725
60.1694,25.1455
60.2204,24.7578
60.2714,18.2589
60.3224,34.4076
60.3734,16.1355
60.4244,23.7229
60.4754,27.6423
60.5264,41.3428
60.5774,84.157
60.6284,75.2231
60.6794,52.3572
60.7304,56.2371
60.7814,62.8151
60.8324,33.8745
60.8834,25.9682
60.9344,17.5392
60.9854,17.8339
61.0364,16.403
61.0874,19.0281
61.1384,22.1773
61.1894,18.5422
61.2404,14.4064
61.2914,17.7495
61.3424,18.0122
61.3934,22.6223
61.4444,20.0035
61.4954,12.7301
61.5464,22.9987
61.5974,20.7869
61.6484,37.3108
61.6994,48.3621
61.7504,35.1648
61.8014,24.9411
61.8524,32.9578
61.9034,22.9942
61.9544,22.6227
62.0054,24.0313
62.0564,23.6365
62.1074,24.5575
62.1584,18.6786
62.2094,19.648
62.2604,16.5435
62.3114,20.9329
62.3624,17.806
62.4134,12.5451
62.4644,23.2926
62.5154,14.3874
62.5664,20.2494
62.6174,17.2967
62.6684,17.5522
62.7194,15.2035
62.7704,19.4566
62.8214,20.4939
62.8724,16.9991
62.9234,13.6081
62.9744,17.3942
63.0254,9.5747
63.0764,17.6418
63.1274,25.4283
63.1784,19.6025
63.2294,10.2402
63.2804,14.0559
63.3314,17.0694
63.3824,20.2294
63.4334,14.6342
63.4844,19.3888
63.5354,22.0808
63.5864,18.9763
63.6374,17.9928
63.6884,17.9089
63.7394,21.2514
63.7904,20.9582
63.8414,21.2067
63.8924,21.6243
63.9434,24.9345
63.9944,31.6396
64.0454,38.7419
64.0964,77.7837
64.1474,66.5996
64.1984,48.3389
64.2494,48.4397
64.3004,54.9764
64.3514,34.9901
64.4024,25.5634
64.4534,24.1679
64.5044,23.2196
64.5554,20.818
64.6064,28.3662
64.6574,18.2529
64.7084,24.4559
64.7594,26.2151
64.8104,31.4261
64.8614,30.692
64.9124,48.0501
64.9634,72.1051
65.0144,148.1032
65.0654,130.817
65.1164,93.7065
65.1674,75.7915
65.2184,122.7267
65.2694,86.9799
65.3204,59.804
65.3714,47.1384
65.4224,24.8558
65.4734,38.0066
65.5244,26.5276
65.5754,21.787
65.6264,18.3506
65.6774,18.1795
65.7284,27.9921
65.7794,26.6286
65.8304,23.3724
65.8814,17.3083
65.9324,26.0037
65.9834,25.0872
66.0344,35.1837
66.0854,22.7207
66.1364,22.8858
66.1874,33.1908
66.2384,25.0709
66.2894,20.8757
66.3404,25.5971
66.3914,20.6035
66.4424,21.6333
66.4934,18.4775
66.5444,16.1358
66.5954,13.0399
66.6464,14.8931
66.6974,24.5486
66.7484,16.0028
66.7994,16.2629
66.8504,17.2009
66.9014,18.3514
66.9524,19.5121
67.0034,12.4856
67.0544,18.3801
67.1054,18.0151
67.1564,9.8943
67.2074,17.7789
67.2584,22.8638
67.3094,23.54
67.3604,12.2385
67.4114,18.4726
67.4624,17.5567
67.5134,14.0024
67.5644,15.599
67.6154,17.1272
67.6664,12.9963
67.7174,17.4458
67.7684,21.8068
67.8194,13.6635
67.8704,20.4572
67.9214,12.4897
67.9724,17.9949
68.0234,17.5793
68.0744,17.2214
68.1254,13.1509
68.1764,17.3182
68.2274,19.9996
68.2784,24.7486
68.3294,20.6217
68.3804,22.9334
68.4314,25.1772
68.4824,34.2993
68.5334,45.5023
68.5844,51.4341
68.6354,41.2488
68.6864,38.6094
68.7374,56.5274
68.7884,73.9864
68.8394,76.9633
68.8904,56.8864
68.9414,43.9875
68.9924,53.6538
69.0434,48.837
69.0944,29.4071
69.1454,22.6654
69.1964,24.0674
69.2474,21.1115
69.2984,15.1446
69.3494,21.1434
69.4004,24.8546
69.4514,23.2735
69.5024,23.1899
69.5534,15.8727
69.6044,16.4144
69.6554,21.1025
69.7064,17.9733
69.7574,26.3414
69.8084,28.6112
69.8594,22.7296
69.9104,20.2843
69.9614,24.4222
70.0124,28.0716
70.0634,23.1388
70.1144,24.087
70.1654,30.3151
70.2164,30.0676
70.2674,36.0789
70.3184,29.5034
70.3694,35.5358
70.4204,27.2881
70.4714,32.1512
70.5224,26.9969
70.5734,26.854
70.6244,26.3108
70.6754,26.4412
70.7264,30.3877
70.7774,25.9154
70.8284,18.9946
70.8794,25.1298
70.9304,18.2616
70.9814,33.9786
71.0324,33.0566
71.0834,29.2207
71.1344,28.0972
71.1854,50.9807
71.2364,53.9518
71.2874,49.1179
71.3384,42.7171
71.3894,42.6469
71.4404,34.4019
71.4914,29.3584
71.5424,27.7946
71.5934,30.9622
71.6444,35.8948
71.6954,33.0057
71.7464,36.0062
71.7974,52.9101
71.8484,49.102
71.8994,83.9021
71.9504,139.5145
72.0014,144.7848
72.0524,117.1335
72.1034,100.9136
72.1544,165.6603
72.2054,256.0605
72.2564,325.8741
72.3074,177.4235
72.3584,112.4782
72.4094,149.9502
72.4604,181.7427
72.5114,108.7804
72.5624,82.6092
72.6134,75.4968
72.6644,82.6473
72.7154,101.5316
72.7664,167.7762
72.8174,192.288
72.8684,184.4288
72.9194,263.4025
72.9704,227.1855
73.0214,147.3295
73.0724,130.9406
73.1234,133.0608
73.1744,112.3131
73.2254,79.563
73.2764,57.7481
73.3274,29.6267
73.3784,34.9433
73.4294,34.849
73.4804,24.6521
73.5314,26.8349
73.5824,19.4452
73.6334,28.9546
73.6844,35.5517
73.7354,35.7953
73.7864,35.5867
73.8374,44.4171
73.8884,35.0061
73.9394,38.1792
73.9904,29.2873
74.0414,28.6383
74.0924,28.5888
74.1434,27.1367
74.1944,39.6457
74.2454,41.8915
74.2964,43.824
74.3474,50.9856
74.3984,56.4061
74.4494,121.1554
74.5004,117.6456
74.5514,100.1776
74.6024,128.0222
74.6534,111.5935
74.7044,94.7488
74.7554,88.8769
74.8064,82.4725
74.8574,61.3357
74.9084,39.6917
74.9594,40.4355
75.0104,33.2194
75.0614,44.9978
75.1124,42.9664
75.1634,37.763
75.2144,59.2054
75.2654,68.741
75.3164,124.0251
75.3674,131.8441
75.4184,99.7095
75.4694,97.4002
75.5204,155.1939
75.5714,248.0146
75.6224,245.1308
75.6734,137.7481
75.7244,114.3487
75.7754,130.1701
75.8264,141.4712
75.8774,89.4341
75.9284,56.1836
75.9794,44.6918
76.0304,33.0608
76.0814,26.0291
76.1324,28.7701
76.1834,28.236
76.2344,26.5817
76.2854,23.8044
76.3364,19.7167
76.3874,18.8809
76.4384,21.9373
76.4894,16.7955
76.5404,17.5549
76.5914,17.9961
76.6424,17.0294
76.6934,16.9585
76.7444,19.727
76.7954,17.7601
76.8464,19.7263
76.8974,19.0033
76.9484,18.0031
76.9994,18.1655
77.0504,9.2313
77.1014,22.0406
77.1524,19.7926
77.2034,22.5066
77.2544,13.2119
77.3054,19.9943
77.3564,23.004
77.4074,21.3329
77.4584,18.9542
77.5094,30.6034
77.5604,22.3864
77.6114,25.5538
77.6624,28.6998
77.7134,27.7246
77.7644,46.9281
77.8154,64.6328
77.8664,113.2801
77.9174,136.3947
77.9684,103.5936
78.0194,70.4173
78.0704,59.0809
78.1214,86.2822
78.1724,85.0825
78.2234,54.6072
78.2744,46.4621
78.3254,39.3178
78.3764,33.2621
78.4274,39.2026
78.4784,56.7279
78.5294,64.4512
78.5804,89.8384
78.6314,154.103
78.6824,156.4031
78.7334,97.7426
78.7844,74.7258
78.8354,81.4529
78.8864,102.0075
78.9374,71.8305
78.9884,46.3057
79.0394,42.8474
79.0904,26.7651
79.1414,26.4441
79.1924,15.1454
79.2434,26.4069
79.2944,15.4848
79.3454,20.797
79.3964,23.4596
79.4474,26.6287
79.4984,18.9008
79.5494,23.4622
79.6004,25.6439
79.6514,18.7837
79.7024,28.6967
79.7534,21.7225
79.8044,16.9412
79.8554,21.3596
79.9064,16.8644
79.9574,18.2843
80.0084,25.8396
80.0594,11.2
80.1104,19.9943
80.1614,13.2776
80.2124,18.6346
80.2634,15.6842
80.3144,20.1523
80.3654,14.9888
80.4164,24.5166
80.4674,14.3611
80.5184,15.3972
80.5694,17.6239
80.6204,17.7869
80.6714,21.4081
80.7224,22.5909
80.7734,16.7532
80.8244,22.4204
80.8754,16.5794
80.9264,14.6547
80.9774,18.1311
81.0284,25.9086
81.0794,25.7485
81.1304,19.8814
81.1814,17.6545
81.2324,16.3528
81.2834,20.2721
81.3344,15.1685
81.3854,18.0031
81.4364,15.1155
81.4874,20.4701
81.5384,13.0519
81.5894,15.956
81.6404,18.5285
81.6914,26.3214
81.7424,27.1239
81.7934,22.4199
81.8444,37.055
81.8954,36.0225
81.9464,26.7156
81.9974,32.0174
82.0484,32.4954
82.0994,63.2845
82.1504,97.6668
82.2014,116.2141
82.2524,75.2664
82.3034,56.3679
82.3544,52.2951
82.4054,71.1183
82.4564,68.0593
82.5074,43.3238
82.5584,34.2347
82.6094,32.6926
82.6604,24.3526
82.7114,25.0438
82.7624,24.3082
82.8134,25.1692
82.8644,18.6128
82.9154,31.2026
82.9664,24.9199
83.0174,19.8716
83.0684,22.1589
83.1194,22.4556
83.1704,21.4447
83.2214,22.7657
83.2724,24.7142
83.3234,21.3457
83.3744,19.1435
83.4254,13.7782
83.4764,24.9775
83.5274,23.004
83.5784,24.8122
83.6294,16.2672
83.6804,16.8219
83.7314,16.2389
83.7824,16.3785
83.8334,19.9943
83.8844,15.6501
83.9354,25.8232
83.9864,33.7266
84.0374,26.3856
84.0884,21.7099
84.1394,17.2012
84.1904,23.1118
84.2414,22.5782
84.2924,30.6395
84.3434,27.749
84.3944,23.0059
84.4454,26.723
84.4964,29.6748
84.5474,24.661
84.5984,36.0931
84.6494,45.8685
84.7004,46.6936
84.7514,77.7039
84.8024,134.401
84.8534,164.3052
84.9044,113.9169
84.9554,89.9693
85.0064,81.7606
85.0574,124.3751
85.1084,162.8082
85.1594,176.5147
85.2104,162.5728
85.2614,98.4587
85.3124,80.7119
85.3634,96.2362
85.4144,131.0412
85.4654,104.5679
85.5164,74.0128
85.5674,62.7263
85.6184,52.0788
85.6694,51.7948
85.7204,59.7583
85.7714,45.557
85.8224,43.8891
85.8734,45.0744
85.9244,75.7482
85.9754,113.8947
86.0264,194.589
86.0774,244.1831
86.1284,200.6641
86.1794,107.8603
86.2304,93.5742
86.2814,108.6211
86.3324,140.96
86.3834,114.6789
86.4344,72.9911
86.4854,45.5634
86.5364,32.791
86.5874,38.9622
86.6384,34.2334
86.6894,30.8363
86.7404,22.7343
86.7914,33.5404
86.8424,20.0665
86.8934,18.0629
86.9444,31.6625
86.9954,17.5524
87.0464,34.7547
87.0974,23.4714
87.1484,19.9039
87.1994,29.2557
87.2504,31.3253
87.3014,35.6051
87.3524,34.3005
87.4034,47.0545
87.4544,65.1965
87.5054,91.7925
87.5564,128.7513
87.6074,145.3047
87.6584,189.3966
87.7094,235.3323
87.7604,148.0674
87.8114,128.017
87.8624,104.1081
87.9134,98.026
87.9644,130.9054
88.0154,92.0104
88.0664,73.8504
88.1174,57.7957
88.1684,42.5321
88.2194,45.9402
88.2704,51.9853
88.3214,59.9339
88.3724,98.3833
88.4234,120.8422
88.4744,75.1671
88.5254,48.2036
88.5764,49.7505
88.6274,57.8441
88.6784,55.1999
88.7294,65.0273
88.7804,35.0151
88.8314,25.6669
88.8824,29.9468
88.9334,23.8738
88.9844,23.9088
89.0354,14.1802
89.0864,22.2029
89.1374,22.498
89.1884,18.9946
89.2394,20.5763
89.2904,18.8156
89.3414,25.0882
89.3924,20.0035
89.4434,20.2509
89.4944,23.3903
89.5454,20.9976
89.5964,16.2563
89.6474,13.3041
89.6984,21.1078
89.7494,20.9854
89.8004,20.6266
89.8514,17.8856
89.9024,12.1152
89.9534,19.6828
90.0044,18.3236
90.0554,17.7388
90.1064,17.6538
90.1574,10.5718
90.2084,24.2967
90.2594,15.5219
90.3104,17.5601
90.3614,20.4671
90.4124,16.2031
90.4634,13.9953
90.5144,18.9455
90.5654,15.0802
90.6164,14.9793
90.6674,17.0029
90.7184,16.4302
90.7694,17.1841
90.8204,21.0423
90.8714,20.9643
90.9224,12.3921