File: data/xrd_icdd_PDF/00-070-0047 (PD3).csv
10,156
10.06,154
10.12,164
10.18,118
10.24,150
10.3,144
10.36,146
10.42,138
10.48,154
10.54,124
10.6,136
10.66,130
10.72,138
10.78,144
10.84,134
10.9,128
10.96,132
11.02,134
11.08,138
11.14,116
11.2,116
11.26,122
11.32,122
11.38,102
11.44,134
11.5,118
11.56,124
11.62,122
11.68,126
11.74,112
11.8,108
11.86,112
11.92,114
11.98,102
12.04,102
12.1,114
12.16,108
12.22,122
12.28,98
12.34,106
12.4,118
12.46,122
12.52,96
12.58,114
12.64,114
12.7,112
12.76,84
12.82,100
12.88,100
12.94,80
13,90
13.06,104
13.12,106
13.18,112
13.24,92
13.3,96
13.36,92
13.42,94
13.48,94
13.54,98
13.6,70
13.66,86
13.72,102
13.78,88
13.84,86
13.9,92
13.96,98
14.02,116
14.08,74
14.14,82
14.2,78
14.26,96
14.32,102
14.38,94
14.44,100
14.5,106
14.56,74
14.62,74
14.68,82
14.74,102
14.8,100
14.86,90
14.92,74
14.98,102
15.04,78
15.1,104
15.16,76
15.22,80
15.28,88
15.34,80
15.4,72
15.46,102
15.52,84
15.58,96
15.64,76
15.7,98
15.76,92
15.82,86
15.88,92
15.94,90
16,86
16.06,74
16.12,98
16.18,92
16.24,96
16.3,84
16.36,92
16.42,106
16.48,62
16.54,100
16.6,86
16.66,92
16.72,74
16.78,92
16.84,78
16.9,96
16.96,102
17.02,100
17.08,86
17.14,78
17.2,106
17.26,82
17.32,88
17.38,106
17.44,88
17.5,90
17.56,78
17.62,82
17.68,88
17.74,88
17.8,96
17.86,92
17.92,100
17.98,102
18.04,74
18.1,96
18.16,100
18.22,88
18.28,82
18.34,88
18.4,82
18.46,96
18.52,64
18.58,102
18.64,84
18.7,110
18.76,80
18.82,72
18.88,96
18.94,98
19,84
19.06,96
19.12,78
19.18,82
19.24,86
19.3,78
19.36,92
19.42,94
19.48,88
19.54,82
19.6,66
19.66,100
19.72,74
19.78,88
19.84,102
19.9,80
19.96,66
20.02,86
20.08,80
20.14,96
20.2,70
20.26,70
20.32,64
20.38,98
20.44,80
20.5,72
20.56,92
20.62,90
20.68,78
20.74,68
20.8,78
20.86,76
20.92,72
20.98,96
21.04,78
21.1,74
21.16,68
21.22,78
21.28,80
21.34,90
21.4,74
21.46,88
21.52,76
21.58,76
21.64,66
21.7,80
21.76,84
21.82,76
21.88,92
21.94,64
22,80
22.06,68
22.12,76
22.18,78
22.24,90
22.3,78
22.36,78
22.42,74
22.48,58
22.54,92
22.6,70
22.66,68
22.72,76
22.78,72
22.84,70
22.9,62
22.96,62
23.02,72
23.08,66
23.14,82
23.2,90
23.26,74
23.32,66
23.38,74
23.44,50
23.5,88
23.56,76
23.62,72
23.68,78
23.74,86
23.8,78
23.86,74
23.92,84
23.98,80
24.04,62
24.1,86
24.16,74
24.22,66
24.28,68
24.34,90
24.4,84
24.46,76
24.52,86
24.58,90
24.64,76
24.7,68
24.76,76
24.82,60
24.88,92
24.94,76
25,68
25.06,76
25.12,78
25.18,80
25.24,88
25.3,70
25.36,90
25.42,82
25.48,80
25.54,84
25.6,92
25.66,80
25.72,86
25.78,86
25.84,82
25.9,84
25.96,68
26.02,86
26.08,82
26.14,70
26.2,64
26.26,76
26.32,94
26.38,88
26.44,96
26.5,90
26.56,68
26.62,78
26.68,86
26.74,76
26.8,86
26.86,80
26.92,72
26.98,84
27.04,80
27.1,74
27.16,74
27.22,84
27.28,88
27.34,76
27.4,78
27.46,72
27.52,74
27.58,88
27.64,76
27.7,86
27.76,88
27.82,70
27.88,80
27.94,82
28,76
28.06,80
28.12,86
28.18,86
28.24,98
28.3,78
28.36,84
28.42,78
28.48,72
28.54,80
28.6,98
28.66,76
28.72,88
28.78,76
28.84,88
28.9,82
28.96,76
29.02,84
29.08,72
29.14,86
29.2,88
29.26,88
29.32,80
29.38,58
29.44,106
29.5,90
29.56,94
29.62,96
29.68,76
29.74,94
29.8,80
29.86,64
29.92,72
29.98,78
30.04,68
30.1,98
30.16,88
30.22,84
30.28,72
30.34,98
30.4,84
30.46,92
30.52,68
30.58,86
30.64,74
30.7,80
30.76,86
30.82,88
30.88,94
30.94,80
31,86
31.06,106
31.12,86
31.18,92
31.24,94
31.3,112
31.36,112
31.42,176
31.48,162
31.54,262
31.6,532
31.66,1182
31.72,1692
31.78,1274
31.84,614
31.9,294
31.96,188
32.02,160
32.08,124
32.14,88
32.2,90
32.26,90
32.32,62
32.38,78
32.44,86
32.5,78
32.56,88
32.62,68
32.68,86
32.74,76
32.8,84
32.86,72
32.92,76
32.98,66
33.04,80
33.1,96
33.16,72
33.22,80
33.28,72
33.34,78
33.4,90
33.46,86
33.52,84
33.58,68
33.64,78
33.7,104
33.76,86
33.82,58
33.88,80
33.94,82
34,78
34.06,74
34.12,56
34.18,74
34.24,100
34.3,64
34.36,84
34.42,96
34.48,84
34.54,96
34.6,94
34.66,64
34.72,74
34.78,64
34.84,88
34.9,92
34.96,100
35.02,84
35.08,82
35.14,86
35.2,74
35.26,88
35.32,74
35.38,98
35.44,108
35.5,98
35.56,150
35.62,232
35.68,376
35.74,854
35.8,1178
35.86,1012
35.92,702
35.98,342
36.04,212
36.1,156
36.16,130
36.22,102
36.28,102
36.34,74
36.4,74
36.46,88
36.52,82
36.58,82
36.64,76
36.7,68
36.76,78
36.82,80
36.88,88
36.94,72
37,88
37.06,70
37.12,104
37.18,94
37.24,66
37.3,100
37.36,72
37.42,92
37.48,88
37.54,92
37.6,66
37.66,74
37.72,84
37.78,68
37.84,86
37.9,102
37.96,74
38.02,72
38.08,82
38.14,82
38.2,82
38.26,70
38.32,96
38.38,76
38.44,82
38.5,68
38.56,74
38.62,78
38.68,70
38.74,92
38.8,82
38.86,88
38.92,76
38.98,80
39.04,82
39.1,86
39.16,82
39.22,84
39.28,60
39.34,78
39.4,72
39.46,92
39.52,78
39.58,74
39.64,64
39.7,88
39.76,90
39.82,78
39.88,62
39.94,76
40,70
40.06,84
40.12,82
40.18,78
40.24,68
40.3,66
40.36,88
40.42,76
40.48,76
40.54,86
40.6,72
40.66,84
40.72,74
40.78,90
40.84,72
40.9,70
40.96,70
41.02,76
41.08,70
41.14,68
41.2,70
41.26,88
41.32,62
41.38,74
41.44,64
41.5,62
41.56,78
41.62,88
41.68,86
41.74,90
41.8,82
41.86,88
41.92,68
41.98,66
42.04,88
42.1,84
42.16,64
42.22,74
42.28,72
42.34,80
42.4,86
42.46,68
42.52,100
42.58,70
42.64,80
42.7,86
42.76,96
42.82,78
42.88,94
42.94,68
43,76
43.06,72
43.12,72
43.18,78
43.24,74
43.3,86
43.36,80
43.42,70
43.48,68
43.54,88
43.6,78
43.66,96
43.72,90
43.78,70
43.84,72
43.9,70
43.96,94
44.02,82
44.08,80
44.14,92
44.2,74
44.26,92
44.32,60
44.38,74
44.44,72
44.5,82
44.56,72
44.62,102
44.68,82
44.74,80
44.8,82
44.86,76
44.92,90
44.98,78
45.04,86
45.1,74
45.16,84
45.22,82
45.28,64
45.34,84
45.4,66
45.46,70
45.52,82
45.58,74
45.64,76
45.7,92
45.76,78
45.82,90
45.88,104
45.94,92
46,84
46.06,84
46.12,82
46.18,72
46.24,88
46.3,88
46.36,62
46.42,82
46.48,86
46.54,78
46.6,90
46.66,84
46.72,82
46.78,96
46.84,102
46.9,70
46.96,66
47.02,76
47.08,100
47.14,72
47.2,92
47.26,90
47.32,92
47.38,100
47.44,92
47.5,80
47.56,90
47.62,98
47.68,96
47.74,90
47.8,100
47.86,106
47.92,102
47.98,112
48.04,116
48.1,124
48.16,136
48.22,196
48.28,226
48.34,318
48.4,598
48.46,1172
48.52,1902
48.58,1654
48.64,1264
48.7,928
48.76,464
48.82,250
48.88,192
48.94,150
49,134
49.06,146
49.12,118
49.18,114
49.24,106
49.3,92
49.36,98
49.42,108
49.48,110
49.54,82
49.6,90
49.66,108
49.72,98
49.78,94
49.84,96
49.9,84
49.96,100
50.02,74
50.08,92
50.14,84
50.2,94
50.26,100
50.32,96
50.38,90
50.44,80
50.5,94
50.56,88
50.62,80
50.68,96
50.74,94
50.8,98
50.86,120
50.92,92
50.98,84
51.04,82
51.1,88
51.16,86
51.22,70
51.28,78
51.34,100
51.4,92
51.46,88
51.52,94
51.58,100
51.64,86
51.7,90
51.76,80
51.82,110
51.88,98
51.94,84
52,102
52.06,92
52.12,100
52.18,92
52.24,94
52.3,82
52.36,96
52.42,84
52.48,96
52.54,78
52.6,96
52.66,94
52.72,90
52.78,108
52.84,88
52.9,114
52.96,78
53.02,96
53.08,92
53.14,92
53.2,102
53.26,88
53.32,104
53.38,88
53.44,106
53.5,106
53.56,106
53.62,92
53.68,94
53.74,96
53.8,98
53.86,76
53.92,82
53.98,102
54.04,112
54.1,98
54.16,84
54.22,98
54.28,86
54.34,96
54.4,88
54.46,94
54.52,100
54.58,100
54.64,92
54.7,90
54.76,88
54.82,94
54.88,100
54.94,104
55,88
55.06,102
55.12,82
55.18,92
55.24,94
55.3,92
55.36,84
55.42,94
55.48,84
55.54,108
55.6,92
55.66,88
55.72,96
55.78,100
55.84,92
55.9,100
55.96,110
56.02,88
56.08,86
56.14,106
56.2,94
56.26,110
56.32,84
56.38,104
56.44,106
56.5,106
56.56,88
56.62,116
56.68,78
56.74,96
56.8,88
56.86,120
56.92,88
56.98,88
57.04,94
57.1,84
57.16,90
57.22,90
57.28,92
57.34,90
57.4,100
57.46,94
57.52,92
57.58,90
57.64,112
57.7,84
57.76,88
57.82,96
57.88,82
57.94,106
58,94
58.06,88
58.12,94
58.18,86
58.24,84
58.3,82
58.36,94
58.42,80
58.48,92
58.54,80
58.6,88
58.66,86
58.72,92
58.78,94
58.84,108
58.9,88
58.96,106
59.02,92
59.08,96
59.14,92
59.2,88
59.26,90
59.32,94
59.38,78
59.44,90
59.5,98
59.56,98
59.62,98
59.68,72
59.74,82
59.8,84
59.86,100
59.92,86
59.98,94
60.04,104
60.1,56
60.16,92
60.22,88
60.28,76
60.34,82
60.4,82
60.46,82
60.52,98
60.58,100
60.64,108
60.7,88
60.76,84
60.82,84
60.88,102
60.94,94
61,70
61.06,82
61.12,82
61.18,98
61.24,80
61.3,90
61.36,102
61.42,94
61.48,104
61.54,84
61.6,90
61.66,94
61.72,98
61.78,88
61.84,76
61.9,82
61.96,80
62.02,78
62.08,78
62.14,112
62.2,56
62.26,104
62.32,90
62.38,84
62.44,92
62.5,98
62.56,96
62.62,80
62.68,90
62.74,84
62.8,78
62.86,94
62.92,78
62.98,98
63.04,100
63.1,84
63.16,132
63.22,74
63.28,100
63.34,92
63.4,80
63.46,82
63.52,98
63.58,92
63.64,100
63.7,104
63.76,86
63.82,104
63.88,106
63.94,110
64,120
64.06,176
64.12,222
64.18,358
64.24,470
64.3,390
64.36,316
64.42,330
64.48,232
64.54,166
64.6,124
64.66,118
64.72,112
64.78,126
64.84,94
64.9,106
64.96,116
65.02,100
65.08,106
65.14,84
65.2,100
65.26,104
65.32,106
65.38,112
65.44,78
65.5,106
65.56,112
65.62,92
65.68,124
65.74,116
65.8,94
65.86,122
65.92,140
65.98,152
66.04,228
66.1,378
66.16,402
66.22,248
66.28,290
66.34,300
66.4,168
66.46,138
66.52,116
66.58,108
66.64,96
66.7,114
66.76,102
66.82,106
66.88,114
66.94,86
67,108
67.06,104
67.12,112
67.18,90
67.24,92
67.3,92
67.36,98
67.42,94
67.48,100
67.54,110
67.6,82
67.66,94
67.72,98
67.78,88
67.84,86
67.9,86
67.96,100
68.02,78
68.08,92
68.14,104
68.2,110
68.26,80
68.32,90
68.38,98
68.44,92
68.5,102
68.56,86
68.62,82
68.68,94
68.74,92
68.8,110
68.86,110
68.92,98
68.98,94
69.04,78
69.1,104
69.16,102
69.22,106
69.28,86
69.34,102
69.4,96
69.46,94
69.52,110
69.58,96
69.64,76
69.7,92
69.76,80
69.82,88
69.88,98
69.94,100
70,84
70.06,86
70.12,102
70.18,92
70.24,100
70.3,92
70.36,106
70.42,100
70.48,88
70.54,104
70.6,98
70.66,86
70.72,96
70.78,92
70.84,88
70.9,102
70.96,74
71.02,90
71.08,94
71.14,94
71.2,92
71.26,102
71.32,102
71.38,76
71.44,128
71.5,76
71.56,120
71.62,98
71.68,114
71.74,98
71.8,92
71.86,108
71.92,110
71.98,96
72.04,80
72.1,112
72.16,94
72.22,106
72.28,102
72.34,78
72.4,102
72.46,98
72.52,112
72.58,116
72.64,106
72.7,120
72.76,100
72.82,128
72.88,98
72.94,114
73,128
73.06,170
73.12,162
73.18,192
73.24,238
73.3,398
73.36,598
73.42,516
73.48,386
73.54,392
73.6,386
73.66,268
73.72,196
73.78,170
73.84,162
73.9,116
73.96,128
74.02,106
74.08,132
74.14,104
74.2,98
74.26,130
74.32,102
74.38,102
74.44,108
74.5,134
74.56,114
74.62,118
74.68,114
74.74,124
74.8,112
74.86,104
74.92,134
74.98,98
75.04,100
75.1,120
75.16,122
75.22,102
75.28,116
75.34,134
75.4,126
75.46,136
75.52,148
75.58,170
75.64,218
75.7,328
75.76,294
75.82,250
75.88,234
75.94,226
76,196
76.06,156
76.12,142
76.18,146
76.24,102
76.3,142
76.36,120
76.42,112
76.48,116
76.54,94
76.6,114
76.66,122
76.72,110
76.78,130
76.84,106
76.9,120
76.96,128
77.02,140
77.08,122
77.14,172
77.2,166
77.26,190
77.32,264
77.38,306
77.44,690
77.5,908
77.56,644
77.62,438
77.68,498
77.74,558
77.8,382
77.86,224
77.92,198
77.98,148
78.04,118
78.1,134
78.16,114
78.22,114
78.28,126
78.34,118
78.4,136
78.46,114
78.52,116
78.58,108
78.64,106
78.7,142
78.76,122
78.82,98
78.88,118
78.94,122
79,108
79.06,102
79.12,106
79.18,102
79.24,100
79.3,124
79.36,108
79.42,120
79.48,102
79.54,118
79.6,102
79.66,88
79.72,106
79.78,98
79.84,128
79.9,110
79.96,102
80.02,84
80.08,100
80.14,126
80.2,100
80.26,86
80.32,116
80.38,110
80.44,124
80.5,84
80.56,90
80.62,116
80.68,114
80.74,106
80.8,128
80.86,126
80.92,126
80.98,98
81.04,92
81.1,116
81.16,104
81.22,110
81.28,120
81.34,108
81.4,118
81.46,100
81.52,122
81.58,112
81.64,126
81.7,116
81.76,88
81.82,102
81.88,128
81.94,106
82,118
82.06,120
82.12,94
82.18,114
82.24,86
82.3,146
82.36,116
82.42,132
82.48,116
82.54,126
82.6,116
82.66,112
82.72,98
82.78,94
82.84,118
82.9,122
82.96,128
83.02,124
83.08,124
83.14,130
83.2,130
83.26,102
83.32,120
83.38,132
83.44,112
83.5,116
83.56,106
83.62,138
83.68,136
83.74,136
83.8,118
83.86,146
83.92,130
83.98,156
84.04,162
84.1,172
84.16,206
84.22,232
84.28,326
84.34,458
84.4,504
84.46,418
84.52,302
84.58,358
84.64,352
84.7,330
84.76,210
84.82,168
84.88,154
84.94,140
85,136
85.06,156
85.12,134
85.18,126
85.24,128
85.3,118
85.36,116
85.42,116
85.48,140
85.54,104
85.6,110
85.66,108
85.72,140
85.78,126
85.84,106
85.9,112
85.96,128
86.02,134
86.08,110
86.14,100
86.2,110
86.26,132
86.32,130
86.38,112
86.44,134
86.5,120
86.56,134
86.62,122
86.68,118
86.74,116
86.8,100
86.86,126
86.92,124
86.98,106
87.04,118
87.1,122
87.16,110
87.22,106
87.28,94
87.34,108
87.4,126
87.46,124
87.52,104
87.58,112
87.64,130
87.7,116
87.76,116
87.82,98
87.88,122
87.94,100
88,120
88.06,142
88.12,134
88.18,130
88.24,112
88.3,124
88.36,126
88.42,124
88.48,110
88.54,98
88.6,130
88.66,114
88.72,94
88.78,136
88.84,110
88.9,106
88.96,126
89.02,114
89.08,148
89.14,144
89.2,128
89.26,142
89.32,128
89.38,108
89.44,108
89.5,142
89.56,132
89.62,124
89.68,116
89.74,118
89.8,124
89.86,112
89.92,118
89.98,120
90,102