File: data/xrd_icdd_PDF/00-054-0567 (PD3).csv
5.16616,4498.664
5.24616,4460.17
5.32616,4354.19
5.40616,4409.54
5.48616,4333.78
5.56616,4214.07
5.64616,4285.96
5.72616,4193.57
5.80616,4111.88
5.88616,4003.09
5.96616,4053.9
6.04616,4067.48
6.12616,3935.27
6.20616,4008.96
6.28616,4037.23
6.36616,4023.12
6.44616,4032.4
6.52616,3916.92
6.60616,3887.16
6.68616,3902.38
6.76616,3860.68
6.84616,3891.79
6.92616,3826.95
7.00616,3871.45
7.08616,3872.96
7.16616,3831.43
7.24616,3789.59
7.32616,3789.02
7.40616,3765.37
7.48616,3688.37
7.56616,3668.58
7.64616,3678.71
7.72616,3777.8
7.80616,3648.89
7.88616,3776.17
7.96616,3670.37
8.04616,3618.235
8.12616,3613.59
8.20616,3746.27
8.28616,3671.06
8.36616,3631
8.44616,3543.66
8.52616,3484.37
8.60616,3698.5
8.68616,3623.22
8.76616,3637.22
8.84616,3548.36
8.92616,3695.06
9.00616,3679.12
9.08616,3644.73
9.16616,3640.88
9.24616,3711.86
9.32616,3597.78
9.40616,3562.02
9.48616,3654.51
9.56616,3485.59
9.64616,3461.58
9.72616,3493.68
9.80616,3559.53
9.88616,3656.12
9.96616,3506.69
10.04616,3544.29
10.12616,3407.45
10.20616,3399.39
10.28616,3352.78
10.36616,3422.21
10.44616,3473.05
10.52616,3502.23
10.60616,3414.14
10.68616,3568.94
10.76616,3553.86
10.84616,3502.41
10.92616,3516.2
11.00616,3582.48
11.08616,3469.92
11.16616,3506.78
11.24616,3527.8
11.32616,3605.25
11.40616,3520.79
11.48616,3599.21
11.56616,3618.85
11.64616,3499.64
11.72616,3575.71
11.80616,3595.54
11.88616,3587.88
11.96616,3517.14
12.04616,3625.04
12.12616,3480.73
12.20616,3485.08
12.28616,3505.27
12.36616,3522.5
12.44616,3656.07
12.52616,3519.04
12.60616,3478.66
12.68616,3462.07
12.76616,3508.55
12.84616,3451.22
12.92616,3443.05
13.00616,3570.57
13.08616,3564.88
13.16616,3457.67
13.24616,3470.2
13.32616,3519.57
13.40616,3513.74
13.48616,3588.28
13.56616,3478.05
13.64616,3453.04
13.72616,3466.42
13.80616,3447.67
13.88616,3497.41
13.96616,3452.52
14.04616,3512.45
14.12616,3481.43
14.20616,3488.69
14.28616,3612.4
14.36616,3531.52
14.44616,3455.73
14.52616,3448.83
14.60616,3588.78
14.68616,3494.78
14.76616,3463.86
14.84616,3436.53
14.92616,3494.33
15.00616,3415.32
15.08616,3447.79
15.16616,3451.17
15.24616,3501.05
15.32616,3408.26
15.40616,3435.48
15.48616,3379.52
15.56616,3389.34
15.64616,3437.75
15.72616,3520.74
15.80616,3403.81
15.88616,3408.44
15.96616,3542.39
16.04616,3539.37
16.12616,3461.63
16.20616,3460.63
16.28616,3482.76
16.36616,3386.06
16.44616,3370.47
16.52616,3402.54
16.60616,3457.43
16.68616,3332.03
16.76616,3450.86
16.84616,3497
16.92616,3672.2
17.00616,3719.17
17.08616,3495.72
17.16616,3547.934
17.24616,3454.793
17.32616,3479.84
17.40616,3451.47
17.48616,3414.77
17.56616,3351.79
17.64616,3421.82
17.72616,3553.5
17.80616,3470.23
17.88616,3497.21
17.96616,3500.92
18.04616,3458.1
18.12616,3427.21
18.20616,3373.65
18.28616,3487.39
18.36616,3454.58
18.44616,3393.36
18.52616,3417.96
18.60616,3300.94
18.68616,3465.74
18.76616,3432.03
18.84616,3528.19
18.92616,3883.02
19.00616,5226.63
19.08616,3883.02
19.16616,3443.77
19.24616,3403.61
19.32616,3377.65
19.40616,3372.25
19.48616,3385.06
19.56616,3389.74
19.64616,3340.26
19.72616,3369.1
19.80616,3435.8
19.88616,3334.3
19.96616,3331.21
20.04616,3454.67
20.12616,3412.44
20.20616,3269.82
20.28616,3274.42
20.36616,3430.2
20.44616,3440.18
20.52616,3593.4
20.60616,3414.44
20.68616,3363.65
20.76616,3396.19
20.84616,3447.54
20.92616,3390.3
21.00616,3314.34
21.08616,3252.67
21.16616,3306.4
21.24616,3244.79
21.32616,3223.29
21.40616,3263.85
21.48616,3413.95
21.56616,3289.67
21.64616,3313.83
21.72616,3325.516
21.80616,3297.32
21.88616,3254.11
21.96616,3255.33
22.04616,3259.63
22.12616,3346.53
22.20616,3343.28
22.28616,3342.98
22.36616,3385.32
22.44616,3334.28
22.52616,3380.03
22.60616,3416.9
22.68616,3429.96
22.76616,3301.01
22.84616,3312.56
22.92616,3328.18
23.00616,3382.13
23.08616,3293.2
23.16616,3480.35
23.24616,3455.13
23.32616,3391.84
23.40616,3315.84
23.48616,3349
23.56616,3354.62
23.64616,3392.43
23.72616,3334.74
23.80616,3358.83
23.88616,3285.21
23.96616,3559.32
24.04616,4154.94
24.12616,5193.57
24.20616,3655.26
24.28616,3383.18
24.36616,3391.85
24.44616,3444.63
24.52616,3355.96
24.60616,3355.97
24.68616,3318.84
24.76616,3437.63
24.84616,3448
24.92616,3790.77
25.00616,6148.12
25.08616,6974.57
25.16616,3913.22
25.24616,3522.8
25.32616,3407.25
25.40616,3390.63
25.48616,3298.8
25.56616,3340.27
25.64616,3303.61
25.72616,3305.55
25.80616,3296.89
25.88616,3345.05
25.96616,3336.08
26.04616,3297.92
26.12616,3302.99
26.20616,3266.81
26.28616,3342.54
26.36616,3272.09
26.44616,3240.81
26.52616,3277.83
26.60616,3299.93
26.68616,3280.77
26.76616,3326.05
26.84616,3596.2
26.92616,4399.4
27.00616,6995.99
27.08616,4494.29
27.16616,3468.02
27.24616,3333.21
27.32616,3243.85
27.40616,3340.69
27.48616,3292.44
27.56616,3278.87
27.64616,3292.18
27.72616,3295.35
27.80616,3344.96
27.88616,3216.02
27.96616,3325.58
28.04616,3259.08
28.12616,3290.33
28.20616,3348.42
28.28616,3275.61
28.36616,3327.6
28.44616,3308.64
28.52616,3344.18
28.60616,3314.59
28.68616,3352
28.76616,3318.84
28.84616,3343.31
28.92616,3287.19
29.00616,3297.54
29.08616,3215.21
29.16616,3181.47
29.24616,3257.22
29.32616,3299.55
29.40616,3158.72
29.48616,3346.45
29.56616,3337.55
29.64616,3261.68
29.72616,3239.65
29.80616,3283.03
29.88616,3253
29.96616,3307.5
30.04616,3273.95
30.12616,3209.05
30.20616,3323.55
30.28616,3384.06
30.36616,3615.44
30.44616,3779.52
30.52616,3488.56
30.60616,3370.04
30.68616,3405.42
30.76616,3624.08
30.84616,5325.42
30.92616,4908.84
31.00616,3510.61
31.08616,3393.13
31.16616,3490.87
31.24616,3543.86
31.32616,3672.29
31.40616,3737.47
31.48616,4892.1
31.56616,13894.3
31.64616,29539.1
31.72616,13076.8
31.80616,4715.93
31.88616,3740.18
31.96616,3603.76
32.04616,3469.08
32.12616,3432.98
32.20616,3397.86
32.28616,3411.78
32.36616,3502.64
32.44616,3508.7
32.52616,4010.09
32.60616,7000.86
32.68616,11747.1
32.76616,6600.58
32.84616,3835.29
32.92616,3512.75
33.00616,3436.22
33.08616,3344.9
33.16616,3381.21
33.24616,3329.17
33.32616,3368.04
33.40616,3315.71
33.48616,3401.88
33.56616,3339.62
33.64616,3348.95
33.72616,3454.9
33.80616,3466.95
33.88616,3400.78
33.96616,3389.91
34.04616,3389.43
34.12616,3694.11
34.20616,3560.63
34.28616,4579.73
34.36616,5418.99
34.44616,4209.36
34.52616,3625.56
34.60616,3600.04
34.68616,3534.33
34.76616,3662.79
34.84616,4372.25
34.92616,6232.8
35.00616,7354.05
35.08616,6434.54
35.16616,4849.41
35.24616,4181.5
35.32616,5499.09
35.40616,16707.7
35.48616,16515
35.56616,7736.75
35.64616,4095.07
35.72616,3686.553
35.80616,3544.73
35.88616,3502.68
35.96616,3702.84
36.04616,3359.51
36.12616,3556.57
36.20616,3317.64
36.28616,3338.62
36.36616,3499.24
36.44616,3494.46
36.52616,3783.76
36.60616,3839.05
36.68616,3591.62
36.76616,3616.69
36.84616,3700.22
36.92616,3710.95
37.00616,6205.24
37.08616,6577.31
37.16616,4974.85
37.24616,3213.36
37.32616,3682.87
37.40616,3633.74
37.48616,3327.24
37.56616,3398.04
37.64616,3391.83
37.72616,3565.05
37.80616,3526.52
37.88616,3844.2
37.96616,5272.08
38.04616,14180.3
38.12616,11041
38.20616,5441.54
38.28616,3986.43
38.36616,3972.15
38.44616,4780.94
38.52616,12538.7
38.60616,10627.8
38.68616,5954.01
38.76616,3864.64
38.84616,3682.81
38.92616,3766.34
39.00616,4365.59
39.08616,6731.37
39.16616,23354.2
39.24616,15702.5
39.32616,6777.17
39.40616,4111.07
39.48616,3724.55
39.56616,3434.58
39.64616,3566.83
39.72616,3462.6
39.80616,3581.89
39.88616,3475.11
39.96616,3434.27
40.04616,3699.84
40.12616,3011.71
40.20616,3350.52
40.28616,3505.27
40.36616,3242.6
40.44616,3206.2
40.52616,3258.15
40.60616,3357.38
40.68616,3516.487
40.76616,3798.23
40.84616,4642.6
40.92616,8773.78
41.00616,26197.4
41.08616,17512.3
41.16616,7062.52
41.24616,4135.62
41.32616,3669.02
41.40616,3640.76
41.48616,3591.49
41.56616,3335.06
41.64616,3365.07
41.72616,3288.98
41.80616,3275.71
41.88616,3371.47
41.96616,4137.37
42.04616,7441.71
42.12616,5825.2
42.20616,4212.69
42.28616,3331.2
42.36616,3320.64
42.44616,3168.94
42.52616,3248.72
42.60616,3288.74
42.68616,3380.82
42.76616,3531.6
42.84616,4990.91
42.92616,4681.02
43.00616,4061.46
43.08616,3525.29
43.16616,3524.42
43.24616,4182.12
43.32616,6677.19
43.40616,5291.63
43.48616,3852.42
43.56616,3338.01
43.64616,3369.7
43.72616,3064.05
43.80616,3136.13
43.88616,3171.18
43.96616,3124.8
44.04616,3216.57
44.12616,3347.07
44.20616,4743.93
44.28616,4356.23
44.36616,3856.15
44.44616,3422.94
44.52616,3064.9
44.60616,3137.93
44.68616,3141.54
44.76616,3071.77
44.84616,3076.07
44.92616,3102.63
45.00616,3102.89
45.08616,3095.45
45.16616,3188.09
45.24616,2987.81
45.32616,3166.44
45.40616,3317.33
45.48616,3805.56
45.56616,5711.41
45.64616,4703.27
45.72616,3661.58
45.80616,3282.84
45.88616,3088.09
45.96616,3076.56
46.04616,2924.57
46.12616,3253.89
46.20616,3137.55
46.28616,3209.67
46.36616,3372.71
46.44616,3925.04
46.52616,5893.91
46.60616,5024.45
46.68616,4364.09
46.76616,4635.22
46.84616,6667.49
46.92616,5139.43
47.00616,3928.41
47.08616,3402.86
47.16616,3333.48
47.24616,3239.62
47.32616,3563.82
47.40616,3752.11
47.48616,3712.37
47.56616,3424.64
47.64616,3440.18
47.72616,3158.87
47.80616,3278.95
47.88616,3381.08
47.96616,3392.92
48.04616,3465.12
48.12616,3987.45
48.20616,3655.06
48.28616,3469.31
48.36616,3317.49
48.44616,3344.27
48.52616,3173.97
48.60616,3379.12
48.68616,3221.29
48.76616,3311.08
48.84616,3267.2
48.92616,3744.13
49.00616,3715.44
49.08616,3607.79
49.16616,3444.3
49.24616,3542.29
49.32616,4322.16
49.40616,4388.62
49.48616,4544.24
49.56616,3847.23
49.64616,4161.77
49.72616,6653.28
49.80616,9915.28
49.88616,10909
49.96616,6642.88
50.04616,4545.8
50.12616,3641.72
50.20616,3392.32
50.28616,3353.22
50.36616,3233.6
50.44616,3243.21
50.52616,3146.13
50.60616,3187
50.68616,3276.58
50.76616,3289.99
50.84616,3309.58
50.92616,3770.68
51.00616,4706.56
51.08616,4085.92
51.16616,3572.35
51.24616,3382.54
51.32616,3417.44
51.40616,3949.49
51.48616,3586.62
51.56616,3528.13
51.64616,3337.39
51.72616,3329.33
51.80616,3246.02
51.88616,3291.45
51.96616,3159.54
52.04616,3255.33
52.12616,3353.23
52.20616,3324.44
52.28616,3327.81
52.36616,3372.64
52.44616,3178.06
52.52616,3254.59
52.60616,3289.78
52.68616,3367.77
52.76616,3224.962
52.84616,3209
52.92616,3358.97
53.00616,3538.5
53.08616,3598.09
53.16616,3536.36
53.24616,3546.99
53.32616,3692.26
53.40616,3591.36
53.48616,3632.69
53.56616,3497.67
53.64616,3603.27
53.72616,3896.94
53.80616,6831.09
53.88616,7461.88
53.96616,6637.44
54.04616,4160.5
54.12616,3513.99
54.20616,3253
54.28616,3416.23
54.36616,3258.25
54.44616,3247.81
54.52616,3149.57
54.60616,3265.24
54.68616,3201.68
54.76616,3372.89
54.84616,3326.23
54.92616,3317.56
55.00616,3309.15
55.08616,3337.18
55.16616,3536.51
55.24616,4196.47
55.32616,4465.43
55.40616,4228.26
55.48616,3773.52
55.56616,3516.29
55.64616,4126.51
55.72616,3828.34
55.80616,3758.21
55.88616,3554.08
55.96616,3510.19
56.04616,4078.68
56.12616,6964.62
56.20616,5144.35
56.28616,5113.63
56.36616,3940.45
56.44616,3816.2
56.52616,3632.41
56.60616,3423.49
56.68616,3314.95
56.76616,3315.54
56.84616,3583.6
56.92616,3406.82
57.00616,3544.5
57.08616,3429.38
57.16616,3372.49
57.24616,3264.63
57.32616,3392.75
57.40616,3455.11
57.48616,3606.79
57.56616,4603.65
57.64616,7162.04
57.72616,5210.68
57.80616,4852.41
57.88616,3718.427
57.96616,3434.64
58.04616,3365.31
58.12616,3390.41
58.20616,3499.54
58.28616,3816.35
58.36616,3706.59
58.44616,3479.31
58.52616,3254.63
58.60616,3220.84
58.68616,3273.82
58.76616,3291.67
58.84616,3335.5
58.92616,3420.71
59.00616,3594.88
59.08616,4604.54
59.16616,3924.15
59.24616,4251.38
59.32616,4114.55
59.40616,3994.76
59.48616,3757.03
59.56616,3628.62
59.64616,3273.81
59.72616,3632.66
59.80616,3672.71
59.88616,3709.85
59.96616,3619.25
60.04616,3371.07
60.12616,3358.53
60.20616,3365.58
60.28616,3291.26
60.36616,3381.21
60.44616,3450.46
60.52616,3443.68
60.60616,3393.47
60.68616,3364.87
60.76616,3353.79
60.84616,3555.66
60.92616,3291.65
61.00616,3339.82
61.08616,3364.33
61.16616,3394.24
61.24616,3364.61
61.32616,3304.69
61.40616,3343.8
61.48616,3275.36
61.56616,3299.49
61.64616,3340.45
61.72616,3311.81
61.80616,3445.52
61.88616,3590.68
61.96616,3725.04
62.04616,3675.89
62.12616,3541.61
62.20616,3456.97
62.28616,3654.75
62.36616,3433.6
62.44616,3460.46
62.52616,3630.46
62.60616,4492.25
62.68616,7383.81
62.76616,5330.68
62.84616,5756.59
62.92616,4660.58
63.00616,3888.28
63.08616,3877.53
63.16616,3990.77
63.24616,5468.47
63.32616,5809.42
63.40616,5004.54
63.48616,4405.2
63.56616,3644.21
63.64616,3475.92
63.72616,3321.4
63.80616,3376.91
63.88616,3407.88
63.96616,4094.81
64.04616,3865.66
64.12616,3794.82
64.20616,3540.2
64.28616,3317.18
64.36616,3445.59
64.44616,3378.32
64.52616,3434.89
64.60616,3822.87
64.68616,4892.27
64.76616,7974.25
64.84616,5370.14
64.92616,6038.74
65.00616,5172.61
65.08616,4038.12
65.16616,4001.78
65.24616,3709.11
65.32616,3406.8
65.40616,3476.36
65.48616,3822.07
65.56616,3680.28
65.64616,3550.51
65.72616,3646.99
65.80616,3517.69
65.88616,3393.62
65.96616,3453.61
66.04616,3326.32
66.12616,3329.34
66.20616,3328.65
66.28616,3400.79
66.36616,3344.71
66.44616,3456.63
66.52616,3419
66.60616,3748.86
66.68616,4680.92
66.76616,5581.16
66.84616,4737.92
66.92616,4629.53
67.00616,3907.73
67.08616,3419.15
67.16616,3305.73
67.24616,3332.32
67.32616,3483.46
67.40616,3626.6
67.48616,4213.96
67.56616,3924.52
67.64616,3492.25
67.72616,3827.13
67.80616,3614.68
67.88616,3678
67.96616,3546.31
68.04616,3600.05
68.12616,3682.31
68.20616,3939.35
68.28616,4111.69
68.36616,4948.13
68.44616,7394.07
68.52616,5276.752
68.60616,5513.73
68.68616,4172.98
68.76616,3694.91
68.84616,3470.29
68.92616,3266.46
69.00616,3322.24
69.08616,3399.78
69.16616,3312.25
69.24616,3367.8
69.32616,3702.05
69.40616,4497.55
69.48616,3991.87
69.56616,4010.63
69.64616,3647.85
69.72616,3435.17
69.80616,3395.47
69.88616,3340.36
69.96616,3403.97
70.04616,3427.21
70.12616,3235.94
70.20616,3228.49
70.28616,3288.62
70.36616,3346.86
70.44616,3356.18
70.52616,3390.83
70.60616,3412.73
70.68616,3575.23
70.76616,3980.09
70.84616,5132.86
70.92616,4212.19
71.00616,4369.67
71.08616,3818.21
71.16616,3386.37
71.24616,3318.51
71.32616,3444.74
71.40616,3361.56
71.48616,3271.55
71.56616,3259.78
71.64616,3389.6
71.72616,3327.29
71.80616,3427.55
71.88616,3426.9
71.96616,3431.18
72.04616,3375.16
72.12616,3330.5
72.20616,3346.36
72.28616,3382.27
72.36616,3417.39
72.44616,3375.41
72.52616,3386.89
72.60616,3319.49
72.68616,3359.7
72.76616,3379.37
72.84616,3384.85
72.92616,3438.63
73.00616,3401.59
73.08616,3299.64
73.16616,3352.94
73.24616,3358.26
73.32616,3496.93
73.40616,3383.99
73.48616,3323.41
73.56616,3468.07
73.64616,3441.29
73.72616,3505.11
73.80616,3524.59
73.88616,3608.69
73.96616,4085.74
74.04616,5192.67
74.12616,5528.7
74.20616,4897.38
74.28616,4551.01
74.36616,3942.14
74.44616,3456.44
74.52616,3333.03
74.60616,3380.02
74.68616,3338.16
74.76616,3431.72
74.84616,3686.96
74.92616,4075.67
75.00616,5073.23
75.08616,4037.48
75.16616,4227.52
75.24616,3799.46
75.32616,3474.89
75.40616,3606.39
75.48616,3435.86
75.56616,3473.44
75.64616,3430.61
75.72616,3364
75.80616,3331.51
75.88616,3408.17
75.96616,3618.26
76.04616,4409.72
76.12616,3878.4
76.20616,3737.9
76.28616,3771.65
76.36616,3637.64
76.44616,3341.13
76.52616,3352.84
76.60616,3352
76.68616,3403.5
76.76616,3504.72
76.84616,3544.67
76.92616,3782.5
77.00616,3574.85
77.08616,3485.01
77.16616,3538.92
77.24616,3461.282
77.32616,3558.86
77.40616,3640.38
77.48616,4059.89
77.56616,5133.28
77.64616,4271.66
77.72616,4309.48
77.80616,3940.96
77.88616,3607.38
77.96616,3425.8
78.04616,3455.44
78.12616,3683.94
78.20616,3911.02
78.28616,3586.13
78.36616,3610.13
78.44616,3638.94
78.52616,3570.34
78.60616,3909.82
78.68616,3907.39
78.76616,3935.08
78.84616,4023.15
78.92616,3691.16
79.00616,3717.46
79.08616,3735.88
79.16616,3653.48
79.24616,3733.63
79.32616,3787.99
79.40616,4013.69
79.48616,5358.17
79.56616,4702.99
79.64616,4271.68
79.72616,4592.48
79.80616,3847.15
79.88616,3601.95
79.96616,3558.46
80.04616,3471.23
80.12616,3484.65
80.20616,3447.44
80.28616,3368.56
80.36616,3557.04
80.44616,3764.64
80.52616,4122.03
80.60616,3651.05
80.68616,3783.38
80.76616,3704.84
80.84616,3620.34
80.92616,3581.53
81.00616,3748.68
81.08616,4202.84
81.16616,4725.658
81.24616,4077.26
81.32616,4589.64
81.40616,5037.71
81.48616,4131.39
81.56616,4037.34
81.64616,3923.05
81.72616,3476.9
81.80616,3370.91
81.88616,3373.14
81.96616,3438.34
82.04616,3334.37
82.12616,3403.01
82.20616,3578.74
82.28616,4308.86
82.36616,4416.03
82.44616,3845.84
82.52616,4105.57
82.60616,4092.11
82.68616,3671.33
82.76616,3483.87
82.84616,3507.31
82.92616,3407.43
83.00616,3349.62
83.08616,3245.63
83.16616,3299.99
83.24616,3349.81
83.32616,3307.44
83.40616,3322.42
83.48616,3564.17
83.56616,3753.79
83.64616,4447.62
83.72616,4232.66
83.80616,3871.26
83.88616,4446.68
83.96616,3947.03
84.04616,3604.19
84.12616,3524.88
84.20616,3576
84.28616,3484.16
84.36616,3358.24
84.44616,3501.368
84.52616,3904.73
84.60616,3739.75
84.68616,3550.16
84.76616,3631.65
84.84616,3423.92
84.92616,3414.87
85.00616,3392.06
85.08616,3447.91
85.16616,3528.97
85.24616,3615.5
85.32616,3493.77
85.40616,3591.66
85.48616,3546.51
85.56616,3717.33
85.64616,3527.41
85.72616,3669.37
85.80616,3887.26
85.88616,3481.19
85.96616,3580.89
86.04616,3854.04
86.12616,4358.01
86.20616,4603.38
86.28616,3914.66
86.36616,4147.42
86.44616,4014.27
86.52616,3545.39
86.60616,3484.69
86.68616,3485.78
86.76616,3615.98
86.84616,3510.48
86.92616,3564.68
87.00616,3811.52
87.08616,3876.94
87.16616,3549.63
87.24616,3782.79
87.32616,4136.07
87.40616,3707.61
87.48616,3451.47
87.56616,3604.24
87.64616,3526.15
87.72616,3353.33
87.80616,3417.63
87.88616,3568.34
87.96616,3779.57
88.04616,4396.95
88.12616,3770.55
88.20616,3725.75
88.28616,3785.8
88.36616,3580.57
88.44616,3418.52
88.52616,3398.85
88.60616,3285.22
88.68616,3252.11
88.76616,3340.18
88.84616,3396.26
88.92616,3526.33
89.00616,3349.62
89.08616,3426.2
89.16616,3493.95
89.24616,3491.7
89.32616,3572.1
89.40616,3448.86
89.48616,3329.16
89.56616,3397.6
89.64616,3354.68
89.72616,3312.56
89.80616,3317.9
89.88616,3397.95
89.96616,3398.52
90.04616,3416.65
90.12616,3490.11
90.20616,3562.02
90.28616,3518.54
90.36616,3378.91
90.44616,3362.67
90.52616,3284.86
90.60616,3274.53
90.68616,3217.81
90.76616,3280.68
90.84616,3217.08
90.92616,3357.61
91.00616,3252.71
91.08616,3297.47
91.16616,3554.51
91.24616,3445.42
91.32616,3394.81
91.40616,3464.26
91.48616,3538.01
91.56616,3899.89
91.64616,5017.07
91.72616,6879.76
91.80616,5044.08
91.88616,4483.73
91.96616,5236.57
92.04616,4360.91
92.12616,3752.55
92.20616,3522.44
92.28616,3382.93
92.36616,3201.01
92.44616,3422.77
92.52616,3307.02
92.60616,3300.8
92.68616,3269.51
92.76616,3328.65
92.84616,3196.57
92.92616,3358.98
93.00616,3339.77
93.08616,3397.29
93.16616,3384.37
93.24616,3397.37
93.32616,3262.38
93.40616,3325.07
93.48616,3314.15
93.56616,3318.59
93.64616,3463.99
93.72616,3534.53
93.80616,3564.27
93.88616,3855.34
93.96616,3688.55
94.04616,3470.23
94.12616,3598.36
94.20616,3656.86
94.28616,3458.41
94.36616,3414.65
94.44616,3499.43
94.52616,3757.96
94.60616,3580.3
94.68616,3477.28
94.76616,3537.84
94.84616,3723.08
94.92616,3336.46
95.00616,3328.92
95.08616,3300.51
95.16616,3398.27
95.24616,3407.69
95.32616,3415.35
95.40616,3466.43
95.48616,3854.51
95.56616,4524.73
95.64616,4088.99
95.72616,3886.97
95.80616,3906.15
95.88616,3771.84
95.96616,3545.87
96.04616,3325.94
96.12616,3314.03
96.20616,3248.53
96.28616,3311.69
96.36616,3220.06
96.44616,3434.38
96.52616,3310.04
96.60616,3321.1
96.68616,3400.84
96.76616,3319.04
96.84616,3338.85
96.92616,3354.41
97.00616,3585.83
97.08616,3762.07
97.16616,3597.57
97.24616,3312.69
97.32616,3594.01
97.40616,3737.24
97.48616,3612.74
97.56616,3479
97.64616,3533.57
97.72616,3496.22
97.80616,3392.39
97.88616,3454.32
97.96616,3749.88
98.04616,3625.97
98.12616,3515.9
98.20616,3471.3
98.28616,3460.81
98.36616,3376.88
98.44616,3280.72
98.52616,3317.52
98.60616,3433.23
98.68616,3759.81
98.76616,3569.49
98.84616,3402.89
98.92616,3514.844
99.00616,3529.94
99.08616,3428.21
99.16616,3450.19
99.24616,3552.57
99.32616,4049.74
99.40616,3828.97
99.48616,3544.67
99.56616,3612.4
99.64616,3695.52
99.72616,3622.79
99.80616,3563.38
99.88616,3693.35
99.96616,4158.14
100.046,3993.89
100.126,3825.11
100.206,3896.62
100.286,4081.105
100.366,3759.79
100.446,3542.98
100.526,3483.75
100.606,3424.29
100.686,3172.25
100.766,3336.64
100.846,3183.17
100.926,3273.57
101.006,3328.63
101.086,3352.459
101.166,3534.56
101.246,3790.4
101.326,3581.71
101.406,3565.79
101.486,3463.57
101.566,3622.39
101.646,3491.04
101.726,3569.85
101.806,3751.22
101.886,3983.31
101.966,3859.77
102.046,3783.97
102.126,4064.93
102.206,3947.86
102.286,3681.27
102.366,3537.02
102.446,3554.57
102.526,3386.09
102.606,3321.62
102.686,3240.83
102.766,3367.5
102.846,3479.21
102.926,3599.84
103.006,3691.48
103.086,3933.28
103.166,3842.33
103.246,3584.29
103.326,3487.19
103.406,3589.64
103.486,3512.86
103.566,3515.41
103.646,3514.32
103.726,3550.52
103.806,3524.53
103.886,3492.35
103.966,3475.92
104.046,3396.68
104.126,3530.74
104.206,3582.84
104.286,3864.24
104.366,4401.96
104.446,4556.96
104.526,4054.482
104.606,3815.93
104.686,4012.12
104.766,3992.36
104.846,3753.26
104.926,4095.38
105.006,4540.15
105.086,4034.51
105.166,3792.72
105.246,3891.09
105.326,4175.13
105.406,3722.73
105.486,3516.45
105.566,3366.1
105.646,3450.72
105.726,3424.29
105.806,3319.98
105.886,3275.33
105.966,3382.13
106.046,3300.93
106.126,3200.81
106.206,3318.053
106.286,3459.55
106.366,3884.03
106.446,3820.24
106.526,3515.72
106.606,3399.01
106.686,3508.37
106.766,3495.91
106.846,3374.05
106.926,3409.99
107.006,3293.83
107.086,3223.17
107.166,3204.04
107.246,3360.56
107.326,3222.65
107.406,3365.56
107.486,3471.96
107.566,3564.58
107.646,3748.26
107.726,4039.31
107.806,3921.64
107.886,3725.66
107.966,3804.03
108.026,3870.72