File: data/xrd_icdd_PDF/00-060-0213 (PD3).csv
15,1238
15.08,1226
15.16,1174
15.24,1261
15.32,1273
15.4,1197
15.48,1157
15.56,1195
15.64,1199
15.72,1199
15.8,1230
15.88,1184
15.96,1250
16.04,1197
16.12,1259
16.2,1195
16.28,1236
16.36,1255
16.44,1244
16.52,1203
16.6,1223
16.68,1213
16.76,1232
16.84,1187
16.92,1188
17,1226
17.08,1264
17.16,1158
17.24,1238
17.32,1205
17.4,1240
17.48,1249
17.56,1210
17.64,1197
17.72,1197
17.8,1226
17.88,1287
17.96,1357
18.04,1456
18.12,1354
18.2,1200
18.28,1190
18.36,1157
18.44,1207
18.52,1240
18.6,1253
18.68,1190
18.76,1184
18.84,1178
18.92,1139
19,1170
19.08,1216
19.16,1182
19.24,1173
19.32,1153
19.4,1181
19.48,1178
19.56,1158
19.64,1171
19.72,1163
19.8,1169
19.88,1171
19.96,1206
20.04,1135
20.12,1251
20.2,1149
20.28,1208
20.36,1126
20.44,1176
20.52,1174
20.6,1162
20.68,1157
20.76,1189
20.84,1145
20.92,1180
21,1207
21.08,1139
21.16,1135
21.24,1093
21.32,1148
21.4,1131
21.48,1173
21.56,1128
21.64,1147
21.72,1137
21.8,1135
21.88,1146
21.96,1174
22.04,1209
22.12,1164
22.2,1215
22.28,1220
22.36,1317
22.44,1780
22.52,3000
22.6,3746
22.68,2066
22.76,1361
22.84,1233
22.92,1257
23,1208
23.08,1214
23.16,1226
23.24,1333
23.32,1481
23.4,2186
23.48,3684
23.56,4181
23.64,2387
23.72,1463
23.8,1230
23.88,1184
23.96,1131
24.04,1136
24.12,1133
24.2,1176
24.28,1120
24.36,1099
24.44,1103
24.52,1057
24.6,1001
24.68,1114
24.76,1092
24.84,1060
24.92,1109
25,1078
25.08,1098
25.16,1070
25.24,1078
25.32,1075
25.4,1074
25.48,1081
25.56,1074
25.64,1074
25.72,1067
25.8,1070
25.88,1084
25.96,1143
26.04,1096
26.12,1129
26.2,1143
26.28,1103
26.36,1199
26.44,1180
26.52,1200
26.6,1261
26.68,1258
26.76,1304
26.84,1476
26.92,1892
27,3063
27.08,5107
27.16,5149
27.24,4134
27.32,2269
27.4,1448
27.48,1285
27.56,1256
27.64,1205
27.72,1153
27.8,1176
27.88,1143
27.96,1133
28.04,1133
28.12,1129
28.2,1152
28.28,1154
28.36,1102
28.44,1079
28.52,1116
28.6,1136
28.68,1115
28.76,1117
28.84,1106
28.92,1121
29,1084
29.08,1102
29.16,1143
29.24,1127
29.32,1115
29.4,1078
29.48,1090
29.56,1084
29.64,1120
29.72,1159
29.8,1154
29.88,1101
29.96,1175
30.04,1162
30.12,1069
30.2,1123
30.28,1122
30.36,1104
30.44,1138
30.52,1092
30.6,1114
30.68,1111
30.76,1129
30.84,1178
30.92,1122
31,1198
31.08,1161
31.16,1141
31.24,1088
31.32,1125
31.4,1099
31.48,1131
31.56,1109
31.64,1142
31.72,1103
31.8,1140
31.88,1184
31.96,1184
32.04,1171
32.12,1094
32.2,1199
32.28,1258
32.36,1238
32.44,1266
32.52,1341
32.6,1548
32.68,2202
32.76,2556
32.84,1941
32.92,1391
33,1179
33.08,1182
33.16,1218
33.24,1205
33.32,1171
33.4,1162
33.48,1218
33.56,1149
33.64,1173
33.72,1144
33.8,1202
33.88,1171
33.96,1214
34.04,1179
34.12,1270
34.2,1178
34.28,1166
34.36,1250
34.44,1321
34.52,1378
34.6,1493
34.68,1487
34.76,1471
34.84,1669
34.92,2083
35,3346
35.08,4964
35.16,3940
35.24,2507
35.32,1960
35.4,1634
35.48,1577
35.56,1752
35.64,1893
35.72,2120
35.8,2356
35.88,2959
35.96,4179
36.04,7551
36.12,18846
36.2,26226
36.28,17607
36.36,7502
36.44,4654
36.52,4532
36.6,4914
36.68,3584
36.76,2297
36.84,1881
36.92,1796
37,1673
37.08,1712
37.16,1709
37.24,1789
37.32,1952
37.4,2337
37.48,3096
37.56,5062
37.64,11227
37.72,20788
37.8,15743
37.88,8275
37.96,3807
38.04,2628
38.12,2210
38.2,1904
38.28,1774
38.36,1788
38.44,1702
38.52,1680
38.6,1742
38.68,1702
38.76,1774
38.84,1958
38.92,2478
39,3686
39.08,8237
39.16,10424
39.24,7308
39.32,3551
39.4,2201
39.48,1783
39.56,1593
39.64,1452
39.72,1443
39.8,1432
39.88,1444
39.96,1462
40.04,1429
40.12,1439
40.2,1361
40.28,1366
40.36,1336
40.44,1297
40.52,1298
40.6,1303
40.68,1295
40.76,1256
40.84,1275
40.92,1285
41,1250
41.08,1279
41.16,1320
41.24,1326
41.32,1303
41.4,1331
41.48,1375
41.56,1325
41.64,1217
41.72,1279
41.8,1278
41.88,1225
41.96,1294
42.04,1298
42.12,1363
42.2,1290
42.28,1277
42.36,1332
42.44,1284
42.52,1334
42.6,1349
42.68,1337
42.76,1249
42.84,1350
42.92,1310
43,1271
43.08,1277
43.16,1381
43.24,1442
43.32,1454
43.4,1393
43.48,1407
43.56,1416
43.64,1511
43.72,1536
43.8,1695
43.88,1865
43.96,2094
44.04,2690
44.12,4131
44.2,6734
44.28,6495
44.36,5036
44.44,3186
44.52,2347
44.6,2084
44.68,2078
44.76,2686
44.84,4132
44.92,3910
45,3511
45.08,3091
45.16,4404
45.24,6514
45.32,5394
45.4,3766
45.48,2280
45.56,1736
45.64,1579
45.72,1482
45.8,1419
45.88,1468
45.96,1529
46.04,1836
46.12,1993
46.2,1788
46.28,1545
46.36,1312
46.44,1333
46.52,1258
46.6,1266
46.68,1192
46.76,1271
46.84,1255
46.92,1202
47,1212
47.08,1221
47.16,1231
47.24,1218
47.32,1251
47.4,1234
47.48,1241
47.56,1299
47.64,1297
47.72,1330
47.8,1487
47.88,1897
47.96,1968
48.04,1832
48.12,1519
48.2,1341
48.28,1242
48.36,1221
48.44,1190
48.52,1192
48.6,1201
48.68,1165
48.76,1180
48.84,1223
48.92,1152
49,1185
49.08,1181
49.16,1219
49.24,1196
49.32,1177
49.4,1140
49.48,1211
49.56,1191
49.64,1202
49.72,1251
49.8,1237
49.88,1190
49.96,1222
50.04,1278
50.12,1432
50.2,1565
50.28,1449
50.36,1403
50.44,1265
50.52,1197
50.6,1181
50.68,1159
50.76,1172
50.84,1160
50.92,1207
51,1183
51.08,1193
51.16,1183
51.24,1151
51.32,1153
51.4,1221
51.48,1237
51.56,1142
51.64,1185
51.72,1146
51.8,1183
51.88,1181
51.96,1141
52.04,1174
52.12,1160
52.2,1189
52.28,1178
52.36,1201
52.44,1325
52.52,1443
52.6,1749
52.68,1669
52.76,1589
52.84,1417
52.92,1283
53,1178
53.08,1177
53.16,1166
53.24,1228
53.32,1319
53.4,1369
53.48,1394
53.56,1676
53.64,1563
53.72,1466
53.8,1310
53.88,1256
53.96,1224
54.04,1253
54.12,1244
54.2,1200
54.28,1172
54.36,1238
54.44,1281
54.52,1254
54.6,1273
54.68,1350
54.76,1320
54.84,1448
54.92,1498
55,1996
55.08,2972
55.16,3222
55.24,2775
55.32,2340
55.4,1705
55.48,1544
55.56,1453
55.64,1654
55.72,1935
55.8,2585
55.88,2687
55.96,2466
56.04,2601
56.12,2870
56.2,3116
56.28,2668
56.36,2268
56.44,1823
56.52,1560
56.6,1461
56.68,1400
56.76,1358
56.84,1332
56.92,1321
57,1279
57.08,1254
57.16,1284
57.24,1181
57.32,1213
57.4,1237
57.48,1243
57.56,1268
57.64,1245
57.72,1238
57.8,1254
57.88,1245
57.96,1329
58.04,1279
58.12,1261
58.2,1311
58.28,1326
58.36,1313
58.44,1366
58.52,1445
58.6,1722
58.68,2020
58.76,1925
58.84,1800
58.92,1621
59,1537
59.08,1691
59.16,1897
59.24,1955
59.32,1827
59.4,1691
59.48,1543
59.56,1481
59.64,1386
59.72,1363
59.8,1398
59.88,1307
59.96,1338
60.04,1421
60.12,1450
60.2,1609
60.28,1766
60.36,2335
60.44,3322
60.52,4202
60.6,3503
60.68,3257
60.76,2376
60.84,1927
60.92,1578
61,1487
61.08,1453
61.16,1537
61.24,1607
61.32,1979
61.4,2477
61.48,2357
61.56,2128
61.64,1906
61.72,1598
61.8,1430
61.88,1315
61.96,1325
62.04,1293
62.12,1248
62.2,1228
62.28,1262
62.36,1307
62.44,1248
62.52,1289
62.6,1237
62.68,1240
62.76,1207
62.84,1284
62.92,1277
63,1298
63.08,1321
63.16,1300
63.24,1540
63.32,1888
63.4,2552
63.48,2368
63.56,2050
63.64,1901
63.72,1553
63.8,1390
63.88,1312
63.96,1289
64.04,1302
64.12,1291
64.2,1303
64.28,1249
64.36,1298
64.44,1261
64.52,1312
64.6,1302
64.68,1403
64.76,1491
64.84,1591
64.92,1759
65,2345
65.08,3625
65.16,3566
65.24,3010
65.32,2842
65.4,2111
65.48,1611
65.56,1505
65.64,1527
65.72,1468
65.8,1610
65.88,1565
65.96,1496
66.04,1390
66.12,1337
66.2,1274
66.28,1250
66.36,1282
66.44,1278
66.52,1289
66.6,1204
66.68,1225
66.76,1289
66.84,1224
66.92,1257
67,1294
67.08,1225
67.16,1202
67.24,1265
67.32,1290
67.4,1351
67.48,1370
67.56,1341
67.64,1504
67.72,1592
67.8,1785
67.88,2313
67.96,3404
68.04,2990
68.12,2541
68.2,2498
68.28,1816
68.36,1541
68.44,1407
68.52,1450
68.6,1385
68.68,1365
68.76,1300
68.84,1334
68.92,1392
69,1363
69.08,1342
69.16,1280
69.24,1272
69.32,1352
69.4,1317
69.48,1339
69.56,1376
69.64,1294
69.72,1373
69.8,1263
69.88,1325
69.96,1361
70.04,1306
70.12,1387
70.2,1371
70.28,1383
70.36,1362
70.44,1475
70.52,1458
70.6,1537
70.68,1585
70.76,1798
70.84,2307
70.92,3367
71,3277
71.08,2882
71.16,2697
71.24,2232
71.32,1808
71.4,1535
71.48,1499
71.56,1396
71.64,1383
71.72,1405
71.8,1366
71.88,1434
71.96,1386
72.04,1394
72.12,1389
72.2,1329
72.28,1246
72.36,1321
72.44,1289
72.52,1339
72.6,1353
72.68,1333
72.76,1367
72.84,1343
72.92,1300
73,1352
73.08,1366
73.16,1393
73.24,1357
73.32,1328
73.4,1380
73.48,1380
73.56,1445
73.64,1549
73.72,1801
73.8,2198
73.88,2293
73.96,2230
74.04,2404
74.12,2617
74.2,2230
74.28,1952
74.36,1892
74.44,1619
74.52,1505
74.6,1450
74.68,1352
74.76,1355
74.84,1290
74.92,1293
75,1350
75.08,1260
75.16,1351
75.24,1333
75.32,1457
75.4,1396
75.48,1381
75.56,1494
75.64,1492
75.72,1524
75.8,1550
75.88,1724
75.96,2009
76.04,2454
76.12,2553
76.2,2130
76.28,2188
76.36,2056
76.44,1875
76.52,1837
76.6,1887
76.68,1843
76.76,1812
76.84,1989
76.92,2095
77,2339
77.08,2327
77.16,2147
77.24,2116
77.32,1984
77.4,1766
77.48,1830
77.56,1688
77.64,1606
77.72,1565
77.8,1473
77.88,1351
77.96,1265
78.04,1360
78.12,1267
78.2,1255
78.28,1335
78.36,1342
78.44,1257
78.52,1293
78.6,1284
78.68,1229
78.76,1301
78.84,1263
78.92,1231
79,1245
79.08,1274
79.16,1262
79.24,1341
79.32,1440
79.4,1424
79.48,1369
79.56,1382
79.64,1341
79.72,1329
79.8,1319
79.88,1299
79.96,1301
80.04,1296
80.12,1368
80.2,1400
80.28,1455
80.36,1589
80.44,1753
80.52,2067
80.6,2186
80.68,1877
80.76,1856
80.84,1750
80.92,1572
81,1509
81.08,1384
81.16,1353
81.24,1321
81.32,1364
81.4,1357
81.48,1296
81.56,1351
81.64,1459
81.72,1483
81.8,1493
81.88,1506
81.96,1602
82.04,1558
82.12,1762
82.2,1960
82.28,2380
82.36,2563
82.44,2289
82.52,2076
82.6,2073
82.68,1764
82.76,1588
82.84,1495
82.92,1453
83,1478
83.08,1693
83.16,1982
83.24,2007
83.32,1763
83.4,1682
83.48,1669
83.56,1506
83.64,1481
83.72,1378
83.8,1417
83.88,1455
83.96,1554
84.04,1780
84.12,1851
84.2,1675
84.28,1581
84.36,1569
84.44,1463
84.52,1317
84.6,1322
84.68,1249
84.76,1283
84.84,1200
84.92,1288
85,1296
85.08,1230
85.16,1235
85.24,1175
85.32,1247
85.4,1234
85.48,1234
85.56,1249
85.64,1274
85.72,1273
85.8,1272
85.88,1198
85.96,1152
86.04,1210
86.12,1291
86.2,1197
86.28,1171
86.36,1259
86.44,1254
86.52,1178
86.6,1183
86.68,1233
86.76,1212
86.84,1219
86.92,1223
87,1226
87.08,1227
87.16,1235
87.24,1210
87.32,1172
87.4,1223
87.48,1226
87.56,1202
87.64,1168
87.72,1193
87.8,1166
87.88,1249
87.96,1181
88.04,1203
88.12,1223
88.2,1315
88.28,1291
88.36,1347
88.44,1424
88.52,1348
88.6,1290
88.68,1354
88.76,1323
88.84,1376
88.92,1337
89,1269
89.08,1332
89.16,1442
89.24,1444
89.32,1403
89.4,1417
89.48,1457
89.56,1436
89.64,1503
89.72,1480
89.8,1416
89.88,1382
89.96,1433
90.04,1349
90.12,1345
90.2,1255
90.28,1305
90.36,1260
90.44,1250
90.52,1236
90.6,1243
90.68,1194
90.76,1206
90.84,1174
90.92,1202
91,1251
91.08,1162
91.16,1314
91.24,1222
91.32,1139
91.4,1226
91.48,1269
91.56,1241
91.64,1226
91.72,1215
91.8,1192
91.88,1278
91.96,1292
92.04,1235
92.12,1198
92.2,1251
92.28,1245
92.36,1262
92.44,1262
92.52,1259
92.6,1268
92.68,1320
92.76,1348
92.84,1251
92.92,1295
93,1328
93.08,1261
93.16,1321
93.24,1300
93.32,1334
93.4,1358
93.48,1327
93.56,1305
93.64,1351
93.72,1334
93.8,1305
93.88,1362
93.96,1425
94.04,1443
94.12,1377
94.2,1297
94.28,1352
94.36,1251
94.44,1265
94.52,1290
94.6,1255
94.68,1274
94.76,1232
94.84,1314
94.92,1364
95,1465
95.08,1462
95.16,1400
95.24,1367
95.32,1402
95.4,1502
95.48,1354
95.56,1389
95.64,1477
95.72,1374
95.8,1374
95.88,1311
95.96,1413
96.04,1393
96.12,1381
96.2,1405
96.28,1573
96.36,1835
96.44,1913
96.52,1797
96.6,1688
96.68,1653
96.76,1730
96.84,1673
96.92,1463
97,1363
97.08,1358
97.16,1381
97.24,1342
97.32,1423
97.4,1440
97.48,1456
97.56,1407
97.64,1522
97.72,1466
97.8,1372
97.88,1397
97.96,1445
98.04,1331
98.12,1379
98.2,1319
98.28,1312
98.36,1263
98.44,1320
98.52,1240
98.6,1327
98.68,1269
98.76,1353
98.84,1275
98.92,1252
99,1376
99.08,1366
99.16,1405
99.24,1469
99.32,1655
99.4,1876
99.48,2092
99.56,2066
99.64,1826
99.72,1834
99.8,1802
99.88,1767
99.96,1681
100.04,1694
100.12,1603
100.2,1671
100.28,1802
100.36,1918
100.44,1876
100.52,1791
100.6,1650
100.68,1768
100.76,1745
100.84,1843
100.92,1682
101,1729
101.08,1729
101.16,1662
101.24,1607
101.32,1600
101.4,1580
101.48,1529
101.56,1467
101.64,1406
101.72,1322
101.8,1310
101.88,1355
101.96,1304
102.04,1359
102.12,1346
102.2,1342
102.28,1338
102.36,1279
102.44,1351
102.52,1361
102.6,1303
102.68,1294
102.76,1347
102.84,1360
102.92,1399
103,1418
103.08,1404
103.16,1390
103.24,1417
103.32,1406
103.4,1379
103.48,1377
103.56,1399
103.64,1467
103.72,1547
103.8,1636
103.88,1763
103.96,1802
104.04,1694
104.12,1607
104.2,1540
104.28,1583
104.36,1511
104.44,1547
104.52,1403
104.6,1388
104.68,1424
104.76,1505
104.84,1544
104.92,1605
105,1572
105.08,1438
105.16,1431
105.24,1497
105.32,1513
105.4,1508
105.48,1532
105.56,1536
105.64,1687
105.72,1596
105.8,1554
105.88,1507
105.96,1456
106.04,1410
106.12,1375
106.2,1330
106.28,1338
106.36,1334
106.44,1323
106.52,1308
106.6,1324
106.68,1284
106.76,1323
106.84,1345
106.92,1393
106.96,1281