File: data/xrd_icdd_PDF/00-063-0587 (PD3).csv
4.9978,2400
5.09885,2073
5.1999,2032
5.30095,1670
5.402,1621
5.50305,1541
5.6041,1364
5.70515,1323
5.8062,1223
5.90725,1195
6.0083,1074
6.10935,1060
6.2104,951
6.31145,954
6.4125,907
6.51355,858
6.6146,795
6.71565,764
6.8167,792
6.91775,742
7.0188,712
7.11985,700
7.2209,677
7.32195,738
7.423,631
7.52405,671
7.6251,656
7.72615,597
7.8272,631
7.92825,648
8.0293,684
8.13035,657
8.2314,640
8.33245,670
8.4335,614
8.53455,663
8.6356,608
8.73665,648
8.8377,705
8.93875,666
9.0398,642
9.14085,694
9.2419,730
9.34295,660
9.444,717
9.54505,755
9.6461,760
9.74715,804
9.8482,820
9.94925,859
10.0503,886
10.15135,863
10.2524,892
10.35345,884
10.4545,931
10.55555,935
10.6566,895
10.75765,958
10.8587,884
10.95975,886
11.0608,877
11.16185,945
11.2629,935
11.36395,977
11.465,893
11.56605,877
11.6671,963
11.76815,985
11.8692,975
11.97025,956
12.0713,984
12.17235,943
12.2734,896
12.37445,945
12.4755,1002
12.57655,926
12.6776,964
12.77865,908
12.8797,912
12.98075,911
13.0818,893
13.18285,968
13.2839,928
13.38495,909
13.486,880
13.58705,952
13.6881,931
13.78915,893
13.8902,924
13.99125,908
14.0923,916
14.19335,855
14.2944,903
14.39545,908
14.4965,893
14.59755,872
14.6986,858
14.79965,776
14.9007,834
15.00175,782
15.1028,815
15.20385,807
15.3049,732
15.40595,814
15.507,732
15.60805,696
15.7091,755
15.81015,773
15.9112,758
16.01225,748
16.1133,760
16.21435,767
16.3154,737
16.41645,748
16.5175,706
16.61855,683
16.7196,641
16.82065,651
16.9217,646
17.02275,646
17.1238,633
17.22485,671
17.3259,665
17.42695,656
17.528,655
17.62905,613
17.7301,634
17.83115,638
17.9322,594
18.03325,599
18.1343,595
18.23535,605
18.3364,582
18.43745,560
18.5385,665
18.63955,559
18.7406,614
18.84165,586
18.9427,584
19.04375,568
19.1448,573
19.24585,547
19.3469,591
19.44795,572
19.549,549
19.65005,546
19.7511,591
19.85215,607
19.9532,568
20.05425,575
20.1553,529
20.25635,535
20.3574,559
20.45845,536
20.5595,498
20.66055,519
20.7616,510
20.86265,516
20.9637,515
21.06475,549
21.1658,527
21.26685,514
21.3679,528
21.46895,431
21.57,489
21.67105,455
21.7721,490
21.87315,499
21.9742,500
22.07525,507
22.1763,453
22.27735,493
22.3784,477
22.47945,481
22.5805,480
22.68155,495
22.7826,455
22.88365,501
22.9847,502
23.08575,495
23.1868,457
23.28785,489
23.3889,434
23.48995,457
23.591,471
23.69205,473
23.7931,452
23.89415,461
23.9952,465
24.09625,439
24.1973,500
24.29835,508
24.3994,617
24.50045,497
24.6015,446
24.70255,449
24.8036,439
24.90465,455
25.0057,493
25.10675,520
25.2078,715
25.30885,491
25.4099,503
25.51095,480
25.612,433
25.71305,455
25.8141,484
25.91515,431
26.0162,490
26.11725,530
26.2183,527
26.31935,534
26.4204,568
26.52145,579
26.6225,684
26.72355,878
26.8246,1354
26.92565,4144
27.0267,11941
27.12775,4986
27.2288,1552
27.32985,1033
27.4309,794
27.53195,796
27.633,955
27.73405,1287
27.8351,3166
27.93615,15667
28.0372,8423
28.13825,2438
28.2393,1286
28.34035,851
28.4414,660
28.54245,614
28.6435,521
28.74455,506
28.8456,525
28.94665,511
29.0477,524
29.14875,551
29.2498,457
29.35085,453
29.4519,451
29.55295,459
29.654,464
29.75505,494
29.8561,502
29.95715,444
30.0582,478
30.15925,505
30.2603,492
30.36135,511
30.4624,464
30.56345,460
30.6645,428
30.76555,454
30.8666,398
30.96765,453
31.0687,437
31.16975,406
31.2708,463
31.37185,396
31.4729,431
31.57395,422
31.675,392
31.77605,413
31.8771,427
31.97815,419
32.0792,401
32.18025,438
32.2813,387
32.38235,433
32.4834,453
32.58445,423
32.6855,452
32.78655,477
32.8876,491
32.98865,529
33.0897,561
33.19075,632
33.2918,849
33.39285,1645
33.4939,3151
33.59495,5263
33.696,4419
33.79705,1627
33.8981,828
33.99915,620
34.1002,509
34.20125,480
34.3023,467
34.40335,401
34.5044,411
34.60545,408
34.7065,387
34.80755,413
34.9086,413
35.00965,423
35.1107,355
35.21175,337
35.3128,372
35.41385,347
35.5149,376
35.61595,403
35.717,368
35.81805,373
35.9191,425
36.02015,389
36.1212,405
36.22225,459
36.3233,547
36.42435,774
36.5254,1446
36.62645,2196
36.7275,1611
36.82855,938
36.9296,634
37.03065,536
37.1317,458
37.23275,452
37.3338,486
37.43485,482
37.5359,577
37.63695,776
37.738,1139
37.83905,1200
37.9401,856
38.04115,595
38.1422,442
38.24325,399
38.3443,378
38.44535,308
38.5464,326
38.64745,320
38.7485,328
38.84955,293
38.9506,292
39.05165,340
39.1527,313
39.25375,318
39.3548,319
39.45585,362
39.5569,331
39.65795,322
39.759,378
39.86005,417
39.9611,544
40.06215,767
40.1632,561
40.26425,391
40.3653,348
40.46635,306
40.5674,305
40.66845,281
40.7695,323
40.87055,310
40.9716,310
41.07265,279
41.1737,292
41.27475,305
41.3758,298
41.47685,305
41.5779,254
41.67895,288
41.78,284
41.88105,289
41.9821,355
42.08315,298
42.1842,284
42.28525,249
42.3863,273
42.48735,293
42.5884,278
42.68945,279
42.7905,263
42.89155,288
42.9926,277
43.09365,269
43.1947,287
43.29575,281
43.3968,286
43.49785,288
43.5989,273
43.69995,251
43.801,307
43.90205,314
44.0031,373
44.10415,592
44.2052,1263
44.30625,1310
44.4073,793
44.50835,481
44.6094,347
44.71045,309
44.8115,301
44.91255,271
45.0136,273
45.11465,257
45.2157,231
45.31675,272
45.4178,283
45.51885,260
45.6199,258
45.72095,249
45.822,260
45.92305,273
46.0241,272
46.12515,322
46.2262,306
46.32725,387
46.4283,508
46.52935,760
46.6304,1287
46.73145,1327
46.8325,1035
46.93355,722
47.0346,446
47.13565,433
47.2367,415
47.33775,415
47.4388,515
47.53985,731
47.6409,925
47.74195,765
47.843,491
47.94405,340
48.0451,325
48.14615,308
48.2472,268
48.34825,250
48.4493,240
48.55035,246
48.6514,240
48.75245,243
48.8535,252
48.95455,223
49.0556,218
49.15665,244
49.2577,236
49.35875,233
49.4598,221
49.56085,241
49.6619,240
49.76295,241
49.864,217
49.96505,247
50.0661,238
50.16715,229
50.2682,224
50.36925,229
50.4703,249
50.57135,249
50.6724,247
50.77345,244
50.8745,248
50.97555,273
51.0766,285
51.17765,337
51.2787,498
51.37975,551
51.4808,424
51.58185,346
51.6829,277
51.78395,276
51.885,272
51.98605,249
52.0871,241
52.18815,235
52.2892,236
52.39025,257
52.4913,227
52.59235,238
52.6934,241
52.79445,250
52.8955,255
52.99655,290
53.0976,311
53.19865,289
53.2997,320
53.40075,384
53.5018,663
53.60285,1283
53.7039,1195
53.80495,968
53.906,702
54.00705,392
54.1081,317
54.20915,288
54.3102,259
54.41125,222
54.5123,263
54.61335,251
54.7144,240
54.81545,262
54.9165,222
55.01755,276
55.1186,307
55.21965,308
55.3207,379
55.42175,336
55.5228,333
55.62385,258
55.7249,241
55.82595,245
55.927,216
56.02805,238
56.1291,238
56.23015,229
56.3312,238
56.43225,229
56.5333,266
56.63435,258
56.7354,228
56.83645,232
56.9375,245
57.03855,321
57.1396,468
57.24065,438
57.3417,391
57.44275,331
57.5438,340
57.64485,458
57.7459,417
57.84695,390
57.948,290
58.04905,240
58.1501,245
58.25115,240
58.3522,212
58.45325,236
58.5543,238
58.65535,239
58.7564,244
58.85745,225
58.9585,222
59.05955,232
59.1606,224
59.26165,226
59.3627,223
59.46375,245
59.5648,243
59.66585,248
59.7669,255
59.86795,293
59.969,361
60.07005,419
60.1711,564
60.27215,552
60.3732,485
60.47425,364
60.5753,340
60.67635,398
60.7774,390
60.87845,618
60.9795,928
61.08055,700
61.1816,588
61.28265,495
61.3837,582
61.48475,882
61.5858,717
61.68685,684
61.7879,593
61.88895,458
61.99,441
62.09105,344
62.1921,296
62.29315,287
62.3942,297
62.49525,261
62.5963,261
62.69735,250
62.7984,248
62.89945,212
63.0005,233
63.10155,237
63.2026,226
63.30365,228
63.4047,220
63.50575,232
63.6068,267
63.70785,283
63.8089,417
63.90995,461
64.011,453
64.11205,422
64.2131,363
64.31415,282
64.4152,248
64.51625,245
64.6173,222
64.71835,206
64.8194,217
64.92045,233
65.0215,217
65.12255,224
65.2236,233
65.32465,255
65.4257,298
65.52675,307
65.6278,298
65.72885,284
65.8299,262
65.93095,221
66.032,228
66.13305,212
66.2341,206
66.33515,210
66.4362,231
66.53725,240
66.6383,314
66.73935,419
66.8404,348
66.94145,355
67.0425,290
67.14355,219
67.2446,248
67.34565,194
67.4467,205
67.54775,209
67.6488,166
67.74985,188
67.8509,181
67.95195,195
68.053,192
68.15405,176
68.2551,181
68.35615,178
68.4572,183
68.55825,194
68.6593,182
68.76035,229
68.8614,251
68.96245,300
69.0635,290
69.16455,255
69.2656,224
69.36665,185
69.4677,202
69.56875,201
69.6698,181
69.77085,201
69.8719,190
69.97295,217
70.074,219
70.17505,228
70.2761,239
70.37715,211
70.4782,221
70.57925,180
70.6803,200
70.78135,202
70.8824,268
70.98345,281
71.0845,264
71.18555,280
71.2866,290
71.38765,259
71.4887,235
71.58975,192
71.6908,192
71.79185,202
71.8929,215
71.99395,237
72.095,235
72.19605,232
72.2971,205
72.39815,205
72.4992,246
72.60025,235
72.7013,240
72.80235,232
72.9034,201
73.00445,194
73.1055,190
73.20655,204
73.3076,170
73.40865,181
73.5097,181
73.61075,210
73.7118,267
73.81285,275
73.9139,373
74.01495,336
74.116,341
74.21705,284
74.3181,230
74.41915,234
74.5202,196
74.62125,217
74.7223,202
74.82335,187
74.9244,192
75.02545,168
75.1265,149
75.22755,150
75.3286,153
75.42965,160
75.5307,167
75.63175,155
75.7328,173
75.83385,161
75.9349,142
76.03595,173
76.137,154
76.23805,161
76.3391,161
76.44015,171
76.5412,190
76.64225,190
76.7433,241
76.84435,183
76.9454,165
77.04645,181
77.1475,156
77.24855,184
77.3496,178
77.45065,185
77.5517,183
77.65275,181
77.7538,198
77.85485,169
77.9559,173
78.05695,189
78.158,180
78.25905,161
78.3601,167
78.46115,164
78.5622,155
78.66325,170
78.7643,163
78.86535,154
78.9664,145
79.06745,164
79.1685,165
79.26955,164
79.3706,149
79.47165,162
79.5727,159
79.67375,161
79.7748,181
79.87585,166
79.9769,210
80.07795,170
80.179,188
80.28005,207
80.3811,196
80.48215,219
80.5832,241
80.68425,260
80.7853,243
80.88635,213
80.9874,203
81.08845,200
81.1895,188
81.29055,184
81.3916,211
81.49265,179
81.5937,187
81.69475,185
81.7958,177
81.89685,168
81.9979,173
82.09895,155
82.2,163
82.30105,172
82.4021,157
82.50315,180
82.6042,192
82.70525,182
82.8063,163
82.90735,194
83.0084,185
83.10945,169
83.2105,175
83.31155,146
83.4126,150
83.51365,175
83.6147,169
83.71575,159
83.8168,173
83.91785,162
84.0189,174
84.11995,193
84.221,217
84.32205,191
84.4231,239
84.52415,232
84.6252,249
84.72625,253
84.8273,223
84.92835,229
85.0294,247
85.13045,209
85.2315,208
85.33255,225
85.4336,258
85.53465,235
85.6357,223
85.73675,223
85.8378,215
85.93885,222
86.0399,283
86.14095,236
86.242,230
86.34305,244
86.4441,206
86.54515,202
86.6462,177
86.74725,165
86.8483,167
86.94935,149
87.0504,173
87.15145,153
87.2525,165
87.35355,169
87.4546,187
87.55565,143
87.6567,160
87.75775,142
87.8588,159
87.95985,154
88.0609,161
88.16195,146
88.263,138
88.36405,170
88.4651,183
88.56615,180
88.6672,181
88.76825,175
88.8693,195
88.97035,207
89.0714,177
89.17245,171
89.2735,180
89.37455,170
89.4756,177
89.57665,197
89.6777,191
89.77875,204
89.8798,216
89.98085,226
90.0819,206
90.18295,216
90.284,180
90.38505,205
90.4861,188
90.58715,169
90.6882,144
90.78925,142
90.8903,159
90.99135,177
91.0924,167
91.19345,199
91.2945,206
91.39555,195
91.4966,188
91.59765,205
91.6987,196
91.79975,220
91.9008,205
92.00185,204
92.1029,195
92.20395,168
92.305,189
92.40605,154
92.5071,169
92.60815,150
92.7092,142
92.81025,158
92.9113,157
93.01235,149
93.1134,160
93.21445,161
93.3155,163
93.41655,166
93.5176,164
93.61865,157
93.7197,183
93.82075,168
93.9218,140
94.02285,161
94.1239,174
94.22495,169
94.326,163
94.42705,182
94.5281,182
94.62915,165
94.7302,193
94.83125,166
94.9323,179
95.03335,184
95.1344,200
95.23545,226
95.3365,218
95.43755,284
95.5386,278
95.63965,248
95.7407,226
95.84175,247
95.9428,236
96.04385,214
96.1449,195
96.24595,215
96.347,229
96.44805,245
96.5491,244
96.65015,232
96.7512,223
96.85225,279
96.9533,230
97.05435,236
97.1554,219
97.25645,246
97.3575,241
97.45855,229
97.5596,210
97.66065,213
97.7617,207
97.86275,167
97.9638,172
98.06485,174
98.1659,165
98.26695,167
98.368,176
98.46905,193
98.5701,177
98.67115,186
98.7722,187
98.87325,165
98.9743,174
99.07535,161
99.1764,186
99.27745,160
99.3785,155
99.47955,160
99.5806,144
99.68165,157
99.7827,155
99.88375,143
99.9848,170
100.086,167
100.1869,145
100.288,179
100.389,140
100.49,141
100.5911,140
100.692,140
100.7932,157
100.894,173
100.9953,164
101.096,145
101.1974,158
101.298,135
101.3995,148
101.501,174
101.6016,164
101.703,165
101.8037,158
101.905,157
102.0058,150
102.107,147
102.2079,155
102.309,165
102.41,148
102.511,148
102.6121,138
102.713,149
102.8142,133
102.915,166
103.0163,156
103.117,138
103.2184,145
103.319,136
103.4205,138
103.522,153
103.6226,152
103.724,149
103.8247,125
103.926,144
104.0268,149
104.128,148
104.2289,158
104.33,162
104.431,155
104.532,162
104.6331,182
104.734,157
104.8352,152
104.936,141
105.0373,161
105.138,155
105.2394,148
105.34,156
105.4415,138
105.543,158
105.6436,154
105.745,166
105.8457,183
105.947,170
106.0478,170
106.149,179
106.2499,171
106.351,178
106.452,194
106.553,175
106.6541,174
106.755,163
106.8562,163
106.957,169
107.0583,203
107.159,175
107.2604,182
107.361,185
107.4625,205
107.564,218
107.6646,236
107.766,237
107.8667,210
107.968,215
108.0688,211
108.17,199
108.2709,176
108.372,187
108.473,165
108.574,157
108.6751,169
108.776,170
108.8772,167
108.978,158
109.0793,160
109.18,155
109.2814,157
109.382,172
109.4835,160
109.585,167
109.6856,137
109.787,146
109.8877,172
109.989,170
110.0898,187
110.191,187
110.2919,196
110.393,210
110.494,222
110.595,208
110.6961,218
110.797,227
110.8982,194
110.999,190
111.1003,172
111.201,180
111.3024,192
111.403,181
111.5045,177
111.606,186
111.7066,157
111.808,150
111.9087,157
112.01,164
112.1108,157
112.212,180
112.3129,173
112.414,154
112.515,156
112.616,139
112.7171,167
112.818,156
112.9192,163
113.02,172
113.1213,143
113.222,153
113.3234,169
113.424,156
113.5255,145
113.627,169
113.7276,153
113.829,179
113.9297,169
114.031,158
114.1318,157
114.233,152
114.3339,155
114.435,157
114.536,171
114.637,139
114.7381,156
114.839,162
114.9402,172
115.041,155
115.1423,171
115.243,169
115.3444,181
115.445,148
115.5465,165
115.648,167
115.7486,173
115.85,166
115.9507,176
116.052,164
116.1528,148
116.254,146
116.3549,162
116.456,153
116.557,159
116.658,167
116.7591,152
116.86,178
116.9612,164
117.062,149
117.1633,176
117.264,168
117.3654,168
117.466,200
117.5675,158
117.669,185
117.7696,199
117.871,168
117.9717,176
118.073,176
118.1738,194
118.275,154
118.3759,192
118.477,216
118.578,197
118.679,197
118.7801,190
118.881,174
118.9822,189
119.083,190
119.1843,186
119.285,208
119.3864,200
119.487,188
119.5885,183
119.69,196
119.7906,164
119.892,191
119.9927,196
120.094,173
120.1948,174
120.296,147
120.3969,171
120.498,161
120.599,163
120.7,151
120.8011,179
120.902,187
121.0032,162
121.104,161
121.2053,160
121.306,161
121.4074,163
121.508,167
121.6095,174
121.711,179
121.8116,144
121.913,156
122.0137,167
122.115,197
122.2158,183
122.317,161
122.4179,182
122.519,202
122.62,149
122.721,190
122.8221,187
122.923,183
123.0242,184
123.125,184
123.2263,185
123.327,192
123.4284,169
123.529,186
123.6305,166
123.732,204
123.8326,180
123.934,187
124.0347,177
124.136,174
124.2368,177
124.338,198
124.4389,185
124.54,185
124.641,161
124.742,176
124.8431,178
124.944,176
125.0452,177
125.146,182
125.2473,163
125.348,165
125.4494,159
125.55,178
125.6515,166
125.753,153
125.8536,178
125.955,187
126.0557,167
126.157,175
126.2578,159
126.359,146
126.4599,170
126.561,173
126.662,171
126.763,180
126.8641,150
126.965,165
127.0662,182
127.167,209
127.2683,205
127.369,175
127.4704,196
127.571,203
127.6725,198
127.774,178
127.8746,189
127.976,164
128.0767,194
128.178,171
128.2788,181
128.38,211
128.4809,191
128.582,198
128.683,188
128.784,193
128.8851,182
128.986,172
129.0872,209
129.188,182
129.2893,192
129.39,190
129.4914,178
129.592,177
129.6935,188
129.795,179
129.8956,169
129.976,0