File: data/xrd_icdd_PDF/00-063-0698 (PD3).csv
3,546
3.1,526
3.2,481
3.3,453
3.4,455
3.5,459
3.6,435
3.7,414
3.8,357
3.9,377
4,351
4.1,355
4.2,345
4.3,307
4.4,319
4.5,338
4.6,280
4.7,337
4.8,280
4.9,301
5,270
5.1,257
5.2,274
5.3,243
5.4,255
5.5,258
5.6,234
5.7,235
5.8,229
5.9,217
6,229
6.1,216
6.2,244
6.3,196
6.4,208
6.5,172
6.6,197
6.7,177
6.8,221
6.9,172
7,186
7.1,161
7.2,174
7.3,181
7.4,162
7.5,171
7.6,153
7.7,163
7.8,146
7.9,150
8,138
8.1,164
8.2,134
8.3,121
8.4,114
8.5,140
8.6,141
8.7,126
8.8,130
8.9,124
9,123
9.1,112
9.2,120
9.3,133
9.4,118
9.5,115
9.6,147
9.7,122
9.8,119
9.9,107
10,91
10.1,111
10.2,111
10.3,111
10.4,123
10.5,122
10.6,116
10.7,107
10.8,99
10.9,100
11,92
11.1,114
11.2,106
11.3,112
11.4,97
11.5,94
11.6,100
11.7,94
11.8,95
11.9,89
12,91
12.1,97
12.2,81
12.3,98
12.4,74
12.5,80
12.6,92
12.7,90
12.8,108
12.9,95
13,91
13.1,98
13.2,89
13.3,106
13.4,122
13.5,106
13.6,127
13.7,102
13.8,99
13.9,98
14,98
14.1,83
14.2,100
14.3,83
14.4,85
14.5,96
14.6,101
14.7,86
14.8,104
14.9,102
15,96
15.1,89
15.2,112
15.3,111
15.4,91
15.5,102
15.6,103
15.7,88
15.8,101
15.9,102
16,112
16.1,124
16.2,102
16.3,132
16.4,110
16.5,100
16.6,115
16.7,118
16.8,112
16.9,112
17,101
17.1,107
17.2,113
17.3,111
17.4,117
17.5,126
17.6,121
17.7,131
17.8,119
17.9,117
18,114
18.1,124
18.2,118
18.3,192
18.4,274
18.5,213
18.6,284
18.7,119
18.8,115
18.9,117
19,119
19.1,143
19.2,118
19.3,114
19.4,130
19.5,120
19.6,131
19.7,113
19.8,109
19.9,110
20,100
20.1,123
20.2,105
20.3,115
20.4,108
20.5,130
20.6,124
20.7,123
20.8,88
20.9,104
21,115
21.1,119
21.2,211
21.3,998
21.4,886
21.5,151
21.6,132
21.7,110
21.8,104
21.9,110
22,91
22.1,123
22.2,104
22.3,117
22.4,104
22.5,97
22.6,114
22.7,89
22.8,95
22.9,101
23,84
23.1,74
23.2,106
23.3,88
23.4,103
23.5,108
23.6,98
23.7,114
23.8,198
23.9,402
24,172
24.1,95
24.2,104
24.3,91
24.4,85
24.5,90
24.6,82
24.7,67
24.8,97
24.9,66
25,91
25.1,84
25.2,80
25.3,104
25.4,73
25.5,95
25.6,92
25.7,75
25.8,82
25.9,74
26,69
26.1,91
26.2,83
26.3,90
26.4,98
26.5,60
26.6,78
26.7,80
26.8,73
26.9,78
27,76
27.1,65
27.2,81
27.3,92
27.4,88
27.5,75
27.6,67
27.7,79
27.8,84
27.9,66
28,63
28.1,83
28.2,89
28.3,93
28.4,86
28.5,76
28.6,69
28.7,81
28.8,101
28.9,87
29,91
29.1,102
29.2,89
29.3,113
29.4,99
29.5,101
29.6,105
29.7,124
29.8,134
29.9,532
30,612
30.1,3319
30.2,2897
30.3,6131
30.4,7926
30.5,3599
30.6,3415
30.7,843
30.8,218
30.9,136
31,127
31.1,124
31.2,125
31.3,123
31.4,110
31.5,105
31.6,124
31.7,148
31.8,110
31.9,114
32,190
32.1,169
32.2,108
32.3,79
32.4,80
32.5,76
32.6,83
32.7,68
32.8,56
32.9,79
33,61
33.1,56
33.2,67
33.3,45
33.4,81
33.5,48
33.6,64
33.7,68
33.8,74
33.9,84
34,82
34.1,86
34.2,83
34.3,75
34.4,53
34.5,49
34.6,64
34.7,58
34.8,61
34.9,59
35,57
35.1,58
35.2,42
35.3,61
35.4,84
35.5,104
35.6,266
35.7,328
35.8,351
35.9,556
36,264
36.1,105
36.2,67
36.3,70
36.4,61
36.5,69
36.6,56
36.7,45
36.8,55
36.9,54
37,68
37.1,55
37.2,103
37.3,90
37.4,58
37.5,70
37.6,78
37.7,87
37.8,79
37.9,46
38,54
38.1,53
38.2,64
38.3,40
38.4,48
38.5,57
38.6,50
38.7,59
38.8,61
38.9,99
39,212
39.1,191
39.2,105
39.3,49
39.4,52
39.5,51
39.6,55
39.7,33
39.8,42
39.9,62
40,40
40.1,60
40.2,68
40.3,80
40.4,116
40.5,123
40.6,67
40.7,76
40.8,73
40.9,53
41,53
41.1,50
41.2,50
41.3,57
41.4,56
41.5,57
41.6,47
41.7,68
41.8,55
41.9,66
42,65
42.1,61
42.2,51
42.3,52
42.4,69
42.5,61
42.6,86
42.7,79
42.8,73
42.9,76
43,65
43.1,77
43.2,102
43.3,287
43.4,1708
43.5,3019
43.6,1947
43.7,531
43.8,143
43.9,91
44,71
44.1,79
44.2,79
44.3,75
44.4,82
44.5,64
44.6,74
44.7,146
44.8,238
44.9,326
45,201
45.1,77
45.2,80
45.3,62
45.4,60
45.5,70
45.6,64
45.7,60
45.8,43
45.9,55
46,42
46.1,55
46.2,46
46.3,56
46.4,63
46.5,51
46.6,60
46.7,53
46.8,50
46.9,57
47,58
47.1,71
47.2,82
47.3,88
47.4,99
47.5,133
47.6,115
47.7,111
47.8,170
47.9,176
48,117
48.1,81
48.2,48
48.3,62
48.4,62
48.5,122
48.6,245
48.7,185
48.8,138
48.9,377
49,335
49.1,213
49.2,200
49.3,107
49.4,67
49.5,53
49.6,60
49.7,81
49.8,152
49.9,354
50,220
50.1,130
50.2,67
50.3,68
50.4,95
50.5,91
50.6,66
50.7,57
50.8,57
50.9,56
51,55
51.1,52
51.2,51
51.3,56
51.4,56
51.5,55
51.6,69
51.7,64
51.8,61
51.9,57
52,55
52.1,61
52.2,60
52.3,62
52.4,60
52.5,41
52.6,63
52.7,48
52.8,69
52.9,71
53,79
53.1,64
53.2,78
53.3,96
53.4,111
53.5,307
53.6,1353
53.7,1806
53.8,1856
53.9,1714
54,1361
54.1,2049
54.2,2392
54.3,2706
54.4,1167
54.5,392
54.6,143
54.7,119
54.8,102
54.9,89
55,81
55.1,95
55.2,107
55.3,87
55.4,70
55.5,61
55.6,67
55.7,60
55.8,67
55.9,70
56,70
56.1,60
56.2,59
56.3,62
56.4,56
56.5,74
56.6,57
56.7,66
56.8,57
56.9,54
57,71
57.1,62
57.2,72
57.3,104
57.4,78
57.5,80
57.6,87
57.7,107
57.8,80
57.9,73
58,56
58.1,52
58.2,43
58.3,55
58.4,45
58.5,52
58.6,52
58.7,57
58.8,48
58.9,45
59,55
59.1,52
59.2,56
59.3,55
59.4,69
59.5,157
59.6,166
59.7,113
59.8,96
59.9,48
60,50
60.1,51
60.2,60
60.3,57
60.4,57
60.5,50
60.6,39
60.7,57
60.8,54
60.9,29
61,40
61.1,33
61.2,36
61.3,53
61.4,43
61.5,27
61.6,61
61.7,40
61.8,52
61.9,46
62,56
62.1,64
62.2,51
62.3,51
62.4,55
62.5,130
62.6,383
62.7,221
62.8,260
62.9,131
63,299
63.1,801
63.2,568
63.3,1223
63.4,462
63.5,453
63.6,241
63.7,474
63.8,187
63.9,202
64,79
64.1,54
64.2,45
64.3,61
64.4,64
64.5,44
64.6,53
64.7,41
64.8,67
64.9,59
65,47
65.1,40
65.2,42
65.3,44
65.4,47
65.5,33
65.6,40
65.7,44
65.8,46
65.9,62
66,52
66.1,61
66.2,47
66.3,76
66.4,84
66.5,77
66.6,62
66.7,75
66.8,67
66.9,93
67,160
67.1,89
67.2,102
67.3,105
67.4,103
67.5,99
67.6,94
67.7,81
67.8,56
67.9,89
68,80
68.1,55
68.2,48
68.3,44
68.4,51
68.5,98
68.6,106
68.7,90
68.8,73
68.9,51
69,60
69.1,51
69.2,64
69.3,50
69.4,48
69.5,59
69.6,47
69.7,39
69.8,26
69.9,38
70,54
70.1,50
70.2,48
70.3,44
70.4,50
70.5,44
70.6,51
70.7,37
70.8,54
70.9,53
71,53
71.1,66
71.2,132
71.3,509
71.4,259
71.5,386
71.6,590
71.7,1003
71.8,863
71.9,995
72,942
72.1,463
72.2,348
72.3,236
72.4,136
72.5,113
72.6,92
72.7,72
72.8,71
72.9,78
73,78
73.1,82
73.2,63
73.3,66
73.4,49
73.5,50
73.6,45
73.7,43
73.8,49
73.9,48
74,42
74.1,55
74.2,46
74.3,52
74.4,57
74.5,57
74.6,58
74.7,52
74.8,44
74.9,57
75,77
75.1,65
75.2,53
75.3,97
75.4,120
75.5,78
75.6,109
75.7,69
75.8,70
75.9,61
76,73
76.1,74
76.2,56
76.3,66
76.4,57
76.5,55
76.6,87
76.7,106
76.8,102
76.9,117
77,67
77.1,62
77.2,68
77.3,52
77.4,40
77.5,52
77.6,34
77.7,30
77.8,43
77.9,51
78,37
78.1,41
78.2,35
78.3,34
78.4,43
78.5,44
78.6,41
78.7,43
78.8,43
78.9,39
79,54
79.1,63
79.2,79
79.3,162
79.4,197
79.5,134
79.6,140
79.7,71
79.8,76
79.9,59
80,100
80.1,194
80.2,108
80.3,155
80.4,245
80.5,181
80.6,122
80.7,135
80.8,84
80.9,64
81,59
81.1,51
81.2,71
81.3,62
81.4,46
81.5,51
81.6,38
81.7,35
81.8,41
81.9,49
82,36
82.1,49
82.2,47
82.3,45
82.4,51
82.5,80
82.6,73
82.7,50
82.8,78
82.9,90
83,92
83.1,93
83.2,93
83.3,87
83.4,73
83.5,66
83.6,68
83.7,80
83.8,83
83.9,129
84,183
84.1,124
84.2,105
84.3,98
84.4,68
84.5,58
84.6,55
84.7,56
84.8,52
84.9,57
85,49
85.1,46
85.2,48
85.3,47
85.4,56
85.5,53
85.6,52
85.7,60
85.8,51
85.9,51
86,55
86.1,50
86.2,52
86.3,58
86.4,47
86.5,49
86.6,49
86.7,65
86.8,84
86.9,130
87,341
87.1,180
87.2,261
87.3,467
87.4,355
87.5,448
87.6,493
87.7,447
87.8,458
87.9,482
88,288
88.1,456
88.2,818
88.3,578
88.4,463
88.5,639
88.6,329
88.7,226
88.8,130
88.9,105
89,71
89.1,71
89.2,60
89.3,51
89.4,50
89.5,51
89.6,56
89.7,38
89.8,54
89.9,93
90,78
90.1,62
90.2,71
90.3,65
90.4,69
90.5,58
90.6,58
90.7,61
90.8,60
90.9,76
91,65
91.1,62
91.2,69
91.3,67
91.4,67
91.5,62
91.6,58
91.7,37
91.8,58
91.9,81
92,94
92.1,87
92.2,68
92.3,58
92.4,45
92.5,50
92.6,46
92.7,51
92.8,59
92.9,56
93,43
93.1,51
93.2,56
93.3,50
93.4,48
93.5,46
93.6,33
93.7,56
93.8,46
93.9,39
94,40
94.1,33
94.2,31
94.3,32
94.4,40
94.5,49
94.6,47
94.7,39
94.8,46
94.9,40
95,46
95.1,48
95.2,58
95.3,48
95.4,90
95.5,171
95.6,124
95.7,127
95.8,149
95.9,100
96,82
96.1,95
96.2,59
96.3,64
96.4,73
96.5,83
96.6,84
96.7,64
96.8,57
96.9,66
97,54
97.1,58
97.2,62
97.3,53
97.4,50
97.5,42
97.6,45
97.7,36
97.8,44
97.9,46
98,45
98.1,58
98.2,43
98.3,57
98.4,47
98.5,54
98.6,48
98.7,74
98.8,103
98.9,89
99,115
99.1,102
99.2,83
99.3,82
99.4,80
99.5,91
99.6,103
99.7,91
99.8,70
99.9,93
100,111
100.1,81
100.2,79
100.3,112
100.4,90
100.5,78
100.6,69
100.7,71
100.8,79
100.9,78
101,68
101.1,46
101.2,51
101.3,51
101.4,46
101.5,58
101.6,52
101.7,48
101.8,49
101.9,48
102,41
102.1,56
102.2,55
102.3,64
102.4,78
102.5,69
102.6,54
102.7,85
102.8,97
102.9,131
103,162
103.1,210
103.2,173
103.3,205
103.4,333
103.5,325
103.6,368
103.7,386
103.8,477
103.9,404
104,460
104.1,402
104.2,258
104.3,185
104.4,244
104.5,218
104.6,175
104.7,95
104.8,102
104.9,106
105,95
105.1,61
105.2,65
105.3,66
105.4,59
105.5,49
105.6,53
105.7,43
105.8,47
105.9,54
106,46
106.1,59
106.2,55
106.3,50
106.4,82
106.5,132
106.6,85
106.7,81
106.8,83
106.9,81
107,69
107.1,72
107.2,103
107.3,70
107.4,66
107.5,79
107.6,90
107.7,65
107.8,78
107.9,91
108,96
108.1,80
108.2,86
108.3,102
108.4,89
108.5,85
108.6,76
108.7,68
108.8,61
108.9,59
109,59
109.1,47
109.2,48
109.3,57
109.4,55
109.5,61
109.6,54
109.7,50
109.8,54
109.9,53
110,46
110.1,54
110.2,46
110.3,60
110.4,47
110.5,67
110.6,68
110.7,105
110.8,102
110.9,74
111,68
111.1,93
111.2,88
111.3,74
111.4,80
111.5,111
111.6,169
111.7,225
111.8,243
111.9,197
112,233
112.1,320
112.2,243
112.3,171
112.4,136
112.5,193
112.6,173
112.7,174
112.8,83
112.9,99
113,95
113.1,94
113.2,83
113.3,70
113.4,64
113.5,63
113.6,56
113.7,65
113.8,69
113.9,52
114,70
114.1,61
114.2,66
114.3,58
114.4,46
114.5,63
114.6,74
114.7,81
114.8,76
114.9,86
115,105
115.1,102
115.2,82
115.3,85
115.4,120
115.5,131
115.6,100
115.7,112
115.8,98
115.9,118
116,84
116.1,89
116.2,94
116.3,77
116.4,102
116.5,80
116.6,70
116.7,104
116.8,99
116.9,68
117,72
117.1,72
117.2,97
117.3,84
117.4,70
117.5,81
117.6,65
117.7,62
117.8,53
117.9,63
118,71
118.1,57
118.2,42
118.3,42
118.4,51
118.5,62
118.6,56
118.7,52
118.8,60
118.9,50
119,68
119.1,62
119.2,60
119.3,90
119.4,80
119.5,94
119.6,122
119.7,171
119.8,168
119.9,128
120,108
120.1,94
120.2,119
120.3,126
120.4,120
120.5,101
120.6,86
120.7,84
120.8,98
120.9,114
121,167
121.1,218
121.2,169
121.3,160
121.4,205
121.5,251
121.6,248
121.7,218
121.8,245
121.9,251
122,214
122.1,182
122.2,157
122.3,150
122.4,152
122.5,157
122.6,106
122.7,68
122.8,60
122.9,77
123,62
123.1,59
123.2,64
123.3,67
123.4,53
123.5,78
123.6,69
123.7,51
123.8,64
123.9,64
124,66
124.1,80
124.2,71
124.3,61
124.4,52
124.5,67
124.6,59
124.7,64
124.8,60
124.9,63
125,57
125.1,61
125.2,56
125.3,59
125.4,75
125.5,76
125.6,69
125.7,70
125.8,62
125.9,64
126,70
126.1,62
126.2,78
126.3,58
126.4,54
126.5,71
126.6,65
126.7,85
126.8,68
126.9,56
127,54
127.1,79
127.2,61
127.3,61
127.4,58
127.5,60
127.6,51
127.7,75
127.8,45
127.9,66
128,62
128.1,53
128.2,63
128.3,49
128.4,56
128.5,57
128.6,62
128.7,70
128.8,84
128.9,95
129,149
129.1,138
129.2,90
129.3,98
129.4,78
129.5,113
129.6,127
129.7,161
129.8,138
129.9,99
130,107
130.1,99
130.2,109
130.3,101
130.4,150
130.5,121
130.6,116
130.7,122
130.8,141
130.9,170
131,195
131.1,178
131.2,135
131.3,130
131.4,149
131.5,140
131.6,199
131.7,193
131.8,154
131.9,124
132,124
132.1,114
132.2,108
132.3,124
132.4,112
132.5,90
132.6,92
132.7,71
132.8,65
132.9,85
133,80
133.1,55
133.2,88
133.3,78
133.4,111
133.5,87
133.6,105
133.7,83
133.8,82
133.9,72
134,81
134.1,90
134.2,92
134.3,75
134.4,75
134.5,86
134.6,87
134.7,104
134.8,109
134.9,104
135,110
135.1,109
135.2,112
135.3,111
135.4,112
135.5,118
135.6,101
135.7,116
135.8,109
135.9,120
136,145
136.1,126
136.2,111
136.3,98
136.4,75
136.5,83
136.6,108
136.7,127
136.8,129
136.9,111
137,107
137.1,110
137.2,95
137.3,103
137.4,93
137.5,100
137.6,95
137.7,91
137.8,69
137.9,81
138,66
138.1,95
138.2,76
138.3,83
138.4,85
138.5,81
138.6,77
138.7,74
138.8,75
138.9,103
139,130
139.1,155
139.2,138
139.3,118
139.4,107
139.5,92
139.6,100
139.7,88
139.8,115
139.9,116
139.98,135