File: data/xrd_icdd_PDF/00-064-0428 (PD3).csv
10,982
10.08,1019
10.16,981
10.24,944
10.32,923
10.4,982
10.48,1002
10.56,989
10.64,1027
10.72,960
10.8,989
10.88,1035
10.96,1018
11.04,986
11.12,909
11.2,931
11.28,909
11.36,901
11.44,907
11.52,962
11.6,893
11.68,942
11.76,923
11.84,861
11.92,904
12,925
12.08,867
12.16,813
12.24,883
12.32,899
12.4,850
12.48,827
12.56,856
12.64,854
12.72,776
12.8,774
12.88,827
12.96,741
13.04,776
13.12,744
13.2,790
13.28,715
13.36,773
13.44,766
13.52,749
13.6,766
13.68,720
13.76,787
13.84,760
13.92,675
14,701
14.08,752
14.16,758
14.24,702
14.32,714
14.4,776
14.48,717
14.56,690
14.64,619
14.72,704
14.8,643
14.88,606
14.96,723
15.04,686
15.12,602
15.2,597
15.28,630
15.36,648
15.44,621
15.52,586
15.6,622
15.68,542
15.76,584
15.84,597
15.92,562
16,579
16.08,595
16.16,565
16.24,541
16.32,542
16.4,496
16.48,493
16.56,488
16.64,557
16.72,514
16.8,552
16.88,501
16.96,498
17.04,462
17.12,459
17.2,472
17.28,458
17.36,438
17.44,418
17.52,422
17.6,434
17.68,451
17.76,413
17.84,387
17.92,405
18,333
18.08,402
18.16,426
18.24,350
18.32,366
18.4,368
18.48,414
18.56,344
18.64,386
18.72,355
18.8,370
18.88,328
18.96,318
19.04,317
19.12,362
19.2,358
19.28,325
19.36,320
19.44,344
19.52,328
19.6,328
19.68,360
19.76,338
19.84,314
19.92,323
20,309
20.08,354
20.16,286
20.24,304
20.32,294
20.4,317
20.48,331
20.56,341
20.64,294
20.72,312
20.8,370
20.88,330
20.96,360
21.04,381
21.12,314
21.2,338
21.28,298
21.36,310
21.44,291
21.52,291
21.6,280
21.68,293
21.76,306
21.84,245
21.92,306
22,238
22.08,288
22.16,234
22.24,256
22.32,251
22.4,269
22.48,310
22.56,302
22.64,280
22.72,317
22.8,355
22.88,309
22.96,309
23.04,272
23.12,331
23.2,386
23.28,454
23.36,643
23.44,1088
23.52,2198
23.6,5888
23.68,16000
23.76,10597
23.84,14558
23.92,26419
24,9630
24.08,1650
24.16,736
24.24,502
24.32,408
24.4,400
24.48,350
24.56,261
24.64,277
24.72,301
24.8,258
24.88,243
24.96,294
25.04,274
25.12,282
25.2,272
25.28,269
25.36,237
25.44,222
25.52,229
25.6,254
25.68,264
25.76,266
25.84,277
25.92,264
26,272
26.08,299
26.16,270
26.24,314
26.32,293
26.4,429
26.48,754
26.56,1918
26.64,1658
26.72,2024
26.8,2352
26.88,930
26.96,336
27.04,310
27.12,270
27.2,254
27.28,248
27.36,266
27.44,219
27.52,258
27.6,280
27.68,227
27.76,264
27.84,275
27.92,229
28,266
28.08,264
28.16,270
28.24,272
28.32,285
28.4,310
28.48,285
28.56,250
28.64,274
28.72,325
28.8,310
28.88,266
28.96,290
29.04,323
29.12,293
29.2,291
29.28,267
29.36,298
29.44,262
29.52,274
29.6,278
29.68,251
29.76,267
29.84,245
29.92,317
30,301
30.08,277
30.16,270
30.24,270
30.32,205
30.4,283
30.48,240
30.56,254
30.64,242
30.72,235
30.8,264
30.88,285
30.96,278
31.04,274
31.12,246
31.2,237
31.28,242
31.36,243
31.44,264
31.52,262
31.6,261
31.68,253
31.76,286
31.84,256
31.92,269
32,253
32.08,285
32.16,312
32.24,304
32.32,330
32.4,398
32.48,466
32.56,696
32.64,1794
32.72,4963
32.8,13570
32.88,20586
32.96,9787
33.04,1691
33.12,827
33.2,643
33.28,653
33.36,675
33.44,811
33.52,925
33.6,1282
33.68,2507
33.76,6370
33.84,21838
33.92,49744
34,48456
34.08,45285
34.16,23894
34.24,5880
34.32,2147
34.4,1243
34.48,901
34.56,837
34.64,1099
34.72,2146
34.8,6677
34.88,18781
34.96,13254
35.04,5138
35.12,1861
35.2,854
35.28,483
35.36,374
35.44,320
35.52,275
35.6,299
35.68,342
35.76,288
35.84,278
35.92,227
36,227
36.08,227
36.16,226
36.24,211
36.32,245
36.4,210
36.48,214
36.56,214
36.64,253
36.72,229
36.8,237
36.88,264
36.96,216
37.04,203
37.12,214
37.2,267
37.28,232
37.36,200
37.44,192
37.52,237
37.6,179
37.68,227
37.76,213
37.84,248
37.92,264
38,230
38.08,254
38.16,240
38.24,264
38.32,266
38.4,286
38.48,358
38.56,862
38.64,654
38.72,478
38.8,674
38.88,669
38.96,525
39.04,341
39.12,419
39.2,595
39.28,475
39.36,355
39.44,490
39.52,427
39.6,282
39.68,210
39.76,234
39.84,230
39.92,208
40,288
40.08,286
40.16,298
40.24,518
40.32,1398
40.4,1754
40.48,2072
40.56,1285
40.64,1014
40.72,1158
40.8,1250
40.88,1426
40.96,2259
41.04,4936
41.12,2870
41.2,1638
41.28,488
41.36,296
41.44,282
41.52,205
41.6,216
41.68,245
41.76,203
41.84,216
41.92,198
42,163
42.08,211
42.16,205
42.24,221
42.32,298
42.4,267
42.48,342
42.56,530
42.64,1381
42.72,4270
42.8,3075
42.88,2008
42.96,806
43.04,422
43.12,291
43.2,242
43.28,258
43.36,214
43.44,218
43.52,307
43.6,462
43.68,1061
43.76,1587
43.84,2325
43.92,1242
44,846
44.08,392
44.16,306
44.24,326
44.32,283
44.4,278
44.48,314
44.56,413
44.64,616
44.72,931
44.8,755
44.88,768
44.96,904
45.04,645
45.12,437
45.2,269
45.28,248
45.36,224
45.44,243
45.52,235
45.6,251
45.68,261
45.76,213
45.84,274
45.92,427
46,395
46.08,397
46.16,355
46.24,290
46.32,230
46.4,232
46.48,218
46.56,254
46.64,243
46.72,227
46.8,171
46.88,219
46.96,208
47.04,226
47.12,198
47.2,190
47.28,218
47.36,213
47.44,205
47.52,240
47.6,269
47.68,266
47.76,272
47.84,282
47.92,299
48,314
48.08,442
48.16,528
48.24,856
48.32,1813
48.4,6762
48.48,7238
48.56,5726
48.64,2558
48.72,1893
48.8,3656
48.88,11810
48.96,15234
49.04,10008
49.12,5826
49.2,1835
49.28,858
49.36,512
49.44,400
49.52,456
49.6,686
49.68,1312
49.76,987
49.84,877
49.92,552
50,864
50.08,1341
50.16,835
50.24,725
50.32,446
50.4,493
50.48,1291
50.56,1144
50.64,926
50.72,536
50.8,293
50.88,267
50.96,235
51.04,234
51.12,240
51.2,243
51.28,246
51.36,226
51.44,203
51.52,250
51.6,222
51.68,195
51.76,232
51.84,237
51.92,221
52,234
52.08,261
52.16,208
52.24,251
52.32,277
52.4,272
52.48,253
52.56,251
52.64,248
52.72,238
52.8,275
52.88,350
52.96,344
53.04,493
53.12,754
53.2,1405
53.28,2725
53.36,2794
53.44,2346
53.52,2130
53.6,2899
53.68,2541
53.76,1838
53.84,1000
53.92,552
54,374
54.08,398
54.16,443
54.24,429
54.32,413
54.4,398
54.48,541
54.56,854
54.64,1866
54.72,4403
54.8,3618
54.88,3752
54.96,2862
55.04,5226
55.12,8818
55.2,7550
55.28,5568
55.36,3030
55.44,1234
55.52,659
55.6,467
55.68,427
55.76,384
55.84,366
55.92,477
56,758
56.08,1160
56.16,974
56.24,1042
56.32,1062
56.4,1248
56.48,912
56.56,734
56.64,408
56.72,307
56.8,330
56.88,350
56.96,282
57.04,261
57.12,304
57.2,296
57.28,278
57.36,280
57.44,298
57.52,376
57.6,323
57.68,352
57.76,403
57.84,416
57.92,355
58,349
58.08,318
58.16,286
58.24,266
58.32,333
58.4,285
58.48,274
58.56,312
58.64,325
58.72,363
58.8,448
58.88,522
58.96,834
59.04,1264
59.12,2646
59.2,5472
59.28,5171
59.36,4328
59.44,4845
59.52,6621
59.6,3816
59.68,3317
59.76,1744
59.84,830
59.92,755
60,1093
60.08,1814
60.16,4891
60.24,7982
60.32,4187
60.4,4565
60.48,1594
60.56,867
60.64,531
60.72,442
60.8,413
60.88,402
60.96,416
61.04,411
61.12,517
61.2,614
61.28,818
61.36,1542
61.44,4278
61.52,7261
61.6,4590
61.68,6070
61.76,7624
61.84,8203
61.92,6339
62,7434
62.08,9544
62.16,6222
62.24,5470
62.32,3776
62.4,1989
62.48,1182
62.56,837
62.64,624
62.72,451
62.8,413
62.88,387
62.96,403
63.04,400
63.12,323
63.2,365
63.28,342
63.36,320
63.44,246
63.52,254
63.6,278
63.68,259
63.76,291
63.84,278
63.92,357
64,328
64.08,301
64.16,258
64.24,243
64.32,213
64.4,282
64.48,314
64.56,299
64.64,248
64.72,267
64.8,246
64.88,274
64.96,306
65.04,275
65.12,272
65.2,298
65.28,274
65.36,293
65.44,269
65.52,298
65.6,264
65.68,264
65.76,293
65.84,277
65.92,310
66,389
66.08,528
66.16,848
66.24,632
66.32,696
66.4,784
66.48,666
66.56,499
66.64,510
66.72,358
66.8,274
66.88,282
66.96,293
67.04,243
67.12,267
67.2,253
67.28,245
67.36,275
67.44,285
67.52,243
67.6,259
67.68,330
67.76,338
67.84,363
67.92,310
68,272
68.08,258
68.16,202
68.24,250
68.32,278
68.4,264
68.48,328
68.56,386
68.64,502
68.72,635
68.8,682
68.88,1224
68.96,762
69.04,595
69.12,662
69.2,390
69.28,342
69.36,352
69.44,307
69.52,248
69.6,278
69.68,267
69.76,307
69.84,312
69.92,354
70,358
70.08,365
70.16,531
70.24,502
70.32,350
70.4,406
70.48,389
70.56,298
70.64,290
70.72,306
70.8,296
70.88,363
70.96,378
71.04,411
71.12,590
71.2,1040
71.28,2326
71.36,2856
71.44,1853
71.52,2384
71.6,2362
71.68,3419
71.76,2006
71.84,1862
71.92,1614
72,829
72.08,587
72.16,429
72.24,365
72.32,379
72.4,280
72.48,288
72.56,258
72.64,216
72.72,243
72.8,267
72.88,224
72.96,250
73.04,256
73.12,261
73.2,282
73.28,314
73.36,302
73.44,376
73.52,626
73.6,1315
73.68,1130
73.76,1029
73.84,1402
73.92,1253
74,1395
74.08,2326
74.16,1291
74.24,1050
74.32,1139
74.4,574
74.48,358
74.56,328
74.64,293
74.72,336
74.8,310
74.88,360
74.96,418
75.04,451
75.12,600
75.2,1030
75.28,1856
75.36,1317
75.44,1400
75.52,2197
75.6,1507
75.68,978
75.76,1197
75.84,904
75.92,910
76,779
76.08,523
76.16,602
76.24,462
76.32,338
76.4,341
76.48,336
76.56,358
76.64,438
76.72,701
76.8,630
76.88,586
76.96,558
77.04,440
77.12,411
77.2,394
77.28,352
77.36,325
77.44,410
77.52,558
77.6,704
77.68,666
77.76,781
77.84,1056
77.92,728
78,622
78.08,589
78.16,517
78.24,418
78.32,352
78.4,373
78.48,325
78.56,414
78.64,690
78.72,715
78.8,554
78.88,573
78.96,606
79.04,520
79.12,538
79.2,837
79.28,910
79.36,538
79.44,566
79.52,539
79.6,376
79.68,355
79.76,352
79.84,475
79.92,835
80,590
80.08,483
80.16,512
80.24,440
80.32,330
80.4,357
80.48,515
80.56,467
80.64,368
80.72,478
80.8,603
80.88,1032
80.96,1803
81.04,1110
81.12,1003
81.2,1227
81.28,902
81.36,690
81.44,731
81.52,670
81.6,1165
81.68,2477
81.76,4451
81.84,3909
81.92,2821
82,2954
82.08,2379
82.16,1336
82.24,800
82.32,533
82.4,442
82.48,445
82.56,658
82.64,1208
82.72,917
82.8,755
82.88,878
82.96,757
83.04,722
83.12,530
83.2,626
83.28,843
83.36,1011
83.44,691
83.52,638
83.6,781
83.68,509
83.76,429
83.84,485
83.92,515
84,554
84.08,699
84.16,1219
84.24,1470
84.32,830
84.4,720
84.48,888
84.56,685
84.64,629
84.72,618
84.8,942
84.88,1427
84.96,1069
85.04,696
85.12,744
85.2,709
85.28,378
85.36,293
85.44,272
85.52,256
85.6,240
85.68,243
85.76,250
85.84,272
85.92,320
86,466
86.08,834
86.16,792
86.24,510
86.32,582
86.4,666
86.48,506
86.56,483
86.64,366
86.72,501
86.8,456
86.88,338
86.96,370
87.04,437
87.12,517
87.2,851
87.28,832
87.36,626
87.44,666
87.52,989
87.6,998
87.68,682
87.76,594
87.84,701
87.92,619
88,474
88.08,438
88.16,533
88.24,958
88.32,698
88.4,592
88.48,650
88.56,613
88.64,490
88.72,475
88.8,440
88.88,576
88.96,696
89.04,931
89.12,642
89.2,517
89.28,560
89.36,504
89.44,371
89.52,304
89.6,213
89.68,232
89.76,186
89.84,174
89.92,235
90,227
90.08,248
90.16,278
90.24,285
90.32,416
90.4,430
90.48,278
90.56,275
90.64,349
90.72,290
90.8,277
90.88,286
90.96,317
91.04,386
91.12,307
91.2,306
91.28,296
91.36,270
91.44,246
91.52,211
91.6,208
91.68,229
91.76,253
91.84,266
91.92,283
92,330
92.08,394
92.16,406
92.24,504
92.32,725
92.4,656
92.48,494
92.56,547
92.64,666
92.72,725
92.8,768
92.88,491
92.96,360
93.04,472
93.12,469
93.2,370
93.28,392
93.36,520
93.44,949
93.52,1314
93.6,982
93.68,819
93.76,862
93.84,898
93.92,723
94,661
94.08,496
94.16,386
94.24,333
94.32,371
94.4,293
94.48,274
94.56,270
94.64,246
94.72,274
94.8,282
94.88,213
94.96,250
95.04,203
95.12,221
95.2,224
95.28,245
95.36,221
95.44,251
95.52,301
95.6,381
95.68,598
95.76,786
95.84,570
95.92,488
96,542
96.08,642
96.16,658
96.24,744
96.32,763
96.4,733
96.48,974
96.56,1322
96.64,1048
96.72,781
96.8,784
96.88,850
96.96,702
97.04,622
97.12,562
97.2,645
97.28,910
97.36,707
97.44,547
97.52,568
97.6,701
97.68,872
97.76,760
97.84,507
97.92,402
98,464
98.08,501
98.16,400
98.24,363
98.32,333
98.4,259
98.48,325
98.56,315
98.64,293
98.72,344
98.8,435
98.88,597
98.96,802
99.04,1046
99.12,763
99.2,626
99.28,699
99.36,758
99.44,757
99.52,747
99.6,826
99.68,1122
99.76,958
99.84,821
99.92,851
100,1234