File: data/xrd_icdd_PDF/00-067-0137 (PD3).csv
9.65786,218.396
9.75786,218.131
9.85786,223.453
9.95786,225.519
10.05786,215.541
10.15786,218.031
10.25786,217.535
10.35786,212.598
10.45786,216.777
10.55786,214.937
10.65786,215.674
10.75786,214.505
10.85786,209.24
10.95786,211.042
11.05786,212.856
11.15786,212.7292
11.25786,204.418
11.35786,217.311
11.45786,212.532
11.55786,203.458
11.65786,203.274
11.75786,205.553
11.85786,204.364
11.95786,206.87
12.05786,203.864
12.15786,212.185
12.25786,202.347
12.35786,199.974
12.45786,198.085
12.55786,202.41
12.65786,201.955
12.75786,200.087
12.85786,203.359
12.95786,202.456
13.05786,205.732
13.15786,200.375
13.25786,201.755
13.35786,199.544
13.45786,202.783
13.55786,202.463
13.65786,198.382
13.75786,204.389
13.85786,201.935
13.95786,190.922
14.05786,196.563
14.15786,201.498
14.25786,202.8632
14.35786,201.44
14.45786,191.433
14.55786,194.169
14.65786,202.547
14.75786,193.045
14.85786,196.009
14.95786,196.212
15.05786,195.216
15.15786,194.127
15.25786,195.192
15.35786,188.898
15.45786,191.416
15.55786,202.316
15.65786,192.737
15.75786,190.78
15.85786,187.559
15.95786,192.2736
16.05786,194.741
16.15786,195.0437
16.25786,193.501
16.35786,194.039
16.45786,189.139
16.55786,188.656
16.65786,194.783
16.75786,195.217
16.85786,190.777
16.95786,195.383
17.05786,191.454
17.15786,191.333
17.25786,184.892
17.35786,192.248
17.45786,193.346
17.55786,193.9681
17.65786,193.657
17.75786,195.005
17.85786,195.458
17.95786,202.071
18.05786,205.962
18.15786,203.858
18.25786,219.794
18.35786,242.13
18.45786,290.442
18.55786,311.065
18.65786,313.6247
18.75786,291.495
18.85786,255.452
18.95786,235.428
19.05786,217.56
19.15786,202.985
19.25786,196.3277
19.35786,199.722
19.45786,186.6709
19.55786,190.951
19.65786,193.446
19.75786,188.165
19.85786,186.097
19.95786,184.284
20.05786,186.194
20.15786,184.636
20.25786,184.992
20.35786,181.827
20.45786,185.435
20.55786,187.477
20.65786,183.429
20.75786,182.743
20.85786,180.018
20.95786,185.008
21.05786,189.211
21.15786,181.4873
21.25786,178.512
21.35786,177.145
21.45786,182.517
21.55786,185.55
21.65786,180.227
21.75786,181.15
21.85786,183.162
21.95786,181.787
22.05786,184.811
22.15786,178.771
22.25786,190.2742
22.35786,183.3982
22.45786,181.225
22.55786,185.34
22.65786,181.467
22.75786,178.1887
22.85786,183.983
22.95786,180.323
23.05786,185.863
23.15786,188.461
23.25786,172.818
23.35786,178.3018
23.45786,181.418
23.55786,175.589
23.65786,180.662
23.75786,178.3205
23.85786,182.16
23.95786,184.952
24.05786,183.3225
24.15786,181.275
24.25786,178.096
24.35786,180.101
24.45786,177.535
24.55786,176.279
24.65786,179.633
24.75786,179.981
24.85786,177.47
24.95786,178.3807
25.05786,180.597
25.15786,182.786
25.25786,179.806
25.35786,180.062
25.45786,179.25
25.55786,180.722
25.65786,178.241
25.75786,181.827
25.85786,177.25
25.95786,179.511
26.05786,176.414
26.15786,176.403
26.25786,184.7617
26.35786,175.4432
26.45786,180.153
26.55786,182.266
26.65786,179.884
26.75786,183.419
26.85786,182.841
26.95786,180.791
27.05786,182.821
27.15786,178.264
27.25786,182.34
27.35786,183.508
27.45786,178.596
27.55786,187.9991
27.65786,192.002
27.75786,196.982
27.85786,200.337
27.95786,212.3501
28.05786,219.197
28.15786,238.11
28.25786,281.101
28.35786,364.937
28.45786,531.826
28.55786,927.292
28.65786,1266.91
28.75786,1307.57
28.85786,1144.44
28.95786,893.477
29.05786,658.626
29.15786,478.688
29.25786,356.575
29.35786,272.112
29.45786,223.812
29.55786,197.586
29.65786,185.6716
29.75786,172.919
29.85786,182.297
29.95786,178.733
30.05786,178.676
30.15786,176.962
30.25786,172.893
30.35786,167.175
30.45786,175.817
30.55786,167.533
30.65786,173.731
30.75786,172.206
30.85786,171.065
30.95786,171.354
31.05786,180.435
31.15786,178.548
31.25786,179.392
31.35786,195.271
31.45786,197.486
31.55786,195.294
31.65786,186.019
31.75786,174.642
31.85786,167.742
31.95786,171.594
32.05786,169.587
32.15786,167.873
32.25786,169.025
32.35786,168.797
32.45786,170.6963
32.55786,170.458
32.65786,168.815
32.75786,164.488
32.85786,165.675
32.95786,171.417
33.05786,174.3412
33.15786,166.192
33.25786,169.885
33.35786,170.174
33.45786,173.394
33.55786,172.7715
33.65786,171.837
33.75786,178.289
33.85786,196.865
33.95786,232.346
34.05786,285.459
34.15786,317.251
34.25786,308.988
34.35786,269.385
34.45786,225.992
34.55786,189.925
34.65786,176.753
34.75786,171.13
34.85786,173.837
34.95786,172.524
35.05786,162.58
35.15786,167.783
35.25786,169.15
35.35786,170.168
35.45786,169.545
35.55786,169.383
35.65786,166.052
35.75786,171.7787
35.85786,168.252
35.95786,166.405
36.05786,165.152
36.15786,167.892
36.25786,170.075
36.35786,169.077
36.45786,167.115
36.55786,169.334
36.65786,168.249
36.75786,173.976
36.85786,169.959
36.95786,173.697
37.05786,171.937
37.15786,175.49
37.25786,187.15
37.35786,200.513
37.45786,234.0006
37.55786,326.984
37.65786,467.395
37.75786,508.332
37.85786,461.679
37.95786,360.449
38.05786,264.102
38.15786,219.47
38.25786,194.617
38.35786,196.663
38.45786,204.992
38.55786,221.298
38.65786,237.387
38.75786,282.14
38.85786,394.348
38.95786,672.896
39.05786,1301.16
39.15786,1743.26
39.25786,1637.01
39.35786,1204.84
39.45786,778.332
39.55786,581.849
39.65786,660.839
39.75786,1174.12
39.85786,1735.53
39.95786,1715.88
40.05786,1324.57
40.15786,822.336
40.25786,479.628
40.35786,299.855
40.45786,234.974
40.55786,201.549
40.65786,190.701
40.75786,180.5122
40.85786,172.707
40.95786,174.759
41.05786,171.57
41.15786,171.355
41.25786,171.002
41.35786,169.154
41.45786,166.203
41.55786,166.726
41.65786,166.8
41.75786,167.877
41.85786,174.62
41.95786,174.112
42.05786,171.808
42.15786,175.253
42.25786,178.246
42.35786,172.396
42.45786,173.045
42.55786,171.124
42.65786,172.824
42.75786,169.152
42.85786,170.689
42.95786,182.056
43.05786,210.4972
43.15786,288.245
43.25786,386.777
43.35786,400.434
43.45786,329.47
43.55786,258.559
43.65786,201.893
43.75786,180.6195
43.85786,172.343
43.95786,169.995
44.05786,168.176
44.15786,164.359
44.25786,167.266
44.35786,167.827
44.45786,168.753
44.55786,168.977
44.65786,180.743
44.75786,185.675
44.85786,191.758
44.95786,205.235
45.05786,243.757
45.15786,351.406
45.25786,638.768
45.35786,1057.44
45.45786,1181.23
45.55786,911
45.65786,577.438
45.75786,348.732
45.85786,237.492
45.95786,205.868
46.05786,181.855
46.15786,175.983
46.25786,176
46.35786,179.078
46.45786,190.783
46.55786,196.261
46.65786,229.206
46.75786,313.972
46.85786,522.456
46.95786,1064.6
47.05786,1710.97
47.15786,1639.04
47.25786,1168.99
47.35786,687.9723
47.45786,391.6455
47.55786,260.621
47.65786,209.094
47.75786,188.838
47.85786,179.9784
47.95786,165.3529
48.05786,160.57
48.15786,165.5703
48.25786,166.5868
48.35786,170.715
48.45786,170.467
48.55786,168.058
48.65786,183.098
48.75786,214.943
48.85786,310.911
48.95786,567.147
49.05786,825.291
49.15786,801.038
49.25786,578.96
49.35786,365.419
49.45786,251.377
49.55786,191.838
49.65786,166.907
49.75786,161.224
49.85786,153.177
49.95786,147.816
50.05786,148.908
50.15786,147.643
50.25786,148.026
50.35786,146.582
50.45786,146.653
50.55786,143.261
50.65786,146.709
50.75786,146.734
50.85786,141.109
50.95786,138.239
51.05786,142.083
51.15786,139.202
51.25786,145.063
51.35786,141.66
51.45786,141.169
51.55786,142.461
51.65786,148.076
51.75786,154.383
51.85786,158.391
51.95786,154.082
52.05786,146.816
52.15786,143.459
52.25786,143.496
52.35786,139.587
52.45786,147.569
52.55786,143.885
52.65786,148.6176
52.75786,163.637
52.85786,196.204
52.95786,226.374
53.05786,202.124
53.15786,181.705
53.25786,159.719
53.35786,146.5191
53.45786,148.971
53.55786,147.088
53.65786,149.453
53.75786,151.64
53.85786,150.467
53.95786,161.754
54.05786,205.171
54.15786,318.896
54.25786,438.051
54.35786,442.572
54.45786,340.464
54.55786,239.12
54.65786,185.789
54.75786,163.128
54.85786,158.887
54.95786,148.472
55.05786,142.383
55.15786,144.934
55.25786,147.949
55.35786,141.036
55.45786,148.278
55.55786,144.568
55.65786,148.408
55.75786,155.507
55.85786,156.184
55.95786,165.9487
56.05786,208.383
56.15786,339.304
56.25786,492.1119
56.35786,491.276
56.45786,366.159
56.55786,253.005
56.65786,195.684
56.75786,169.848
56.85786,157.419
56.95786,155.01
57.05786,154.874
57.15786,158.195
57.25786,158.97
57.35786,161.096
57.45786,179.245
57.55786,212.486
57.65786,330.812
57.75786,654.014
57.85786,980.1901
57.95786,971.297
58.05786,740.7591
58.15786,466.923
58.25786,302.104
58.35786,225.3797
58.45786,184.888
58.55786,165.469
58.65786,156.495
58.75786,148.8693
58.85786,150.501
58.95786,153.326
59.05786,153.841
59.15786,160.045
59.25786,190.317
59.35786,270.947
59.45786,371.456
59.55786,369.816
59.65786,285.055
59.75786,212.447
59.85786,166.1325
59.95786,153.364
60.05786,148.692
60.15786,147.863
60.25786,151.248
60.35786,145.495
60.45786,147.608
60.55786,149.505
60.65786,142.569
60.75786,146.797
60.85786,149.964
60.95786,147.157
61.05786,149.024
61.15786,148.913
61.25786,143.833
61.35786,147.531
61.45786,143.016
61.55786,140.519
61.65786,144.359
61.75786,139.2
61.85786,145.225
61.95786,148.653
62.05786,143.365
62.15786,145.605
62.25786,149.018
62.35786,147.798
62.45786,138.814
62.55786,144.2463
62.65786,145.267
62.75786,150.8155
62.85786,146.696
62.95786,146.348
63.05786,146.815
63.15786,143.868
63.25786,146.753
63.35786,151.422
63.45786,151.274
63.55786,150.891
63.65786,153.114
63.75786,151.334
63.85786,153.889
63.95786,160.655
64.05786,167.763
64.15786,173.458
64.25786,208.527
64.35786,327.902
64.45786,642.685
64.55786,891.587
64.65786,751.401
64.75786,475.879
64.85786,308.239
64.95786,301.458
65.05786,337.375
65.15786,299.965
65.25786,239.095
65.35786,186.9639
65.45786,161.131
65.55786,151.28
65.65786,158.444
65.75786,153.3626
65.85786,148.046
65.95786,147.523
66.05786,147.642
66.15786,149.414
66.25786,143.844
66.35786,145.4917
66.45786,142.686
66.55786,142.81
66.65786,146.958
66.75786,148.626
66.85786,150.294
66.95786,151.069
67.05786,148.562
67.15786,160.301
67.25786,184.421
67.35786,264.197
67.45786,422.109
67.55786,511.902
67.65786,415.579
67.75786,282.739
67.85786,196.87
67.95786,167.192
68.05786,158.484
68.15786,154.535
68.25786,153.708
68.35786,156.908
68.45786,152.238
68.55786,152.49
68.65786,157.6037
68.75786,163.852
68.85786,197.999
68.95786,327.005
69.05786,613.616
69.15786,788.448
69.25786,585.163
69.35786,364.462
69.45786,228.267
69.55786,185.827
69.65786,175.301
69.75786,162.351
69.85786,157.321
69.95786,149.779
70.05786,158.966
70.15786,171.104
70.25786,215.15
70.35786,318.387
70.45786,399.4
70.55786,355.875
70.65786,297.244
70.75786,378.837
70.85786,678.807
70.95786,894.962
71.05786,716.454
71.15786,430.372
71.25786,248.053
71.35786,196.008
71.45786,176.8074
71.55786,162.312
71.65786,162.145
71.75786,177.11
71.85786,232.397
71.95786,328.209
72.05786,319.796
72.15786,249.8349
72.25786,182.263
72.35786,158.099
72.45786,150.67
72.55786,144.786
72.65786,145.112
72.75786,145.332
72.85786,141.349
72.95786,144.8788
73.05786,145.505
73.15786,141.547
73.25786,143.178
73.35786,147.275
73.45786,148.682
73.55786,154.166
73.65786,154.3026
73.75786,156.538
73.85786,180.768
73.95786,256.701
74.05786,509.049
74.15786,890.222
74.25786,866.11
74.35786,544.596
74.45786,314.179
74.55786,213.707
74.65786,189.171
74.75786,176.716
74.85786,180.9796
74.95786,227.06
75.05786,334.4493
75.15786,376.126
75.25786,301.775
75.35786,224.634
75.45786,191.779
75.55786,188.311
75.65786,185.144
75.75786,199.611
75.85786,259.1883
75.95786,476.528
76.05786,992.099
76.15786,1640.05
76.25786,1823.89
76.35786,1172.02
76.45786,595.558
76.55786,325.49
76.65786,235.071
76.75786,196.321
76.85786,178.78
76.95786,161.142
77.05786,160.102
77.15786,160.706
77.25786,163.519
77.35786,164.4806
77.45786,175.264
77.55786,200.344
77.65786,260.078
77.75786,373.14
77.85786,635.2807
77.95786,745.776
78.05786,501.749
78.15786,290.165
78.25786,197.13
78.35786,166.809
78.45786,164.487
78.55786,157.657
78.65786,151.996
78.75786,151.434
78.85786,155.369
78.95786,163.641
79.05786,195.305
79.15786,324.646
79.25786,515.512
79.35786,626.525
79.45786,574.923
79.55786,405.869
79.65786,249.812
79.75786,182.918
79.85786,163.538
79.95786,154.2683
80.05786,153.004
80.15786,150.832
80.25786,152.704
80.35786,162.328
80.45786,209.1
80.55786,378.2224
80.65786,566.841
80.75786,498.302
80.85786,324.511
80.95786,204.981
81.05786,162.498
81.15786,154.447
81.25786,153.473
81.35786,149.342
81.45786,147.382
81.55786,146.22
81.65786,145.288
81.75786,154.053
81.85786,173.576
81.95786,244.663
82.05786,472.9248
82.15786,650.168
82.25786,530.063
82.35786,313.329
82.45786,193.553
82.55786,163.4016
82.65786,156.194
82.75786,147.7161
82.85786,142.423
82.95786,138.886
83.05786,140.438
83.15786,138.636
83.25786,137.47
83.35786,134.489
83.45786,138.701
83.55786,141.194
83.65786,145.187
83.75786,152.713
83.85786,145.527
83.95786,164.886
84.05786,234.687
84.15786,449.636
84.25786,723.338
84.35786,596.357
84.45786,349.947
84.55786,205.054
84.65786,163.999
84.75786,159.03
84.85786,152.4605
84.95786,143.922
85.05786,142.029
85.15786,141.1733
85.25786,135.045
85.35786,147.189
85.45786,157.254
85.55786,183.491
85.65786,198.6
85.75786,180.036
85.85786,165.69
85.95786,172.373
86.05786,215.918
86.15786,234.33
86.25786,201.717
86.35786,162.118
86.45786,144.628
86.55786,142.6811
86.65786,136.016
86.75786,137.706
86.85786,140.732
86.95786,139.3
87.05786,146.27
87.15786,144.808
87.25786,150.193
87.35786,157.89
87.45786,219.277
87.55786,357.918
87.65786,491.121
87.75786,433.966
87.85786,357.625
87.95786,285.796
88.05786,215.42
88.15786,164.692
88.25786,148.18
88.35786,146.568
88.45786,143.911
88.55786,138.577
88.65786,136.123
88.75786,137.912
88.85786,134.753
88.95786,139.82
89.05786,135.935
89.15786,140.606
89.25786,137.128
89.35786,135.149
89.45786,139.511
89.55786,141.065
89.65786,146.602
89.75786,143.82
89.85786,150.333
89.95786,170.066
90.05786,224.544
90.15786,325.655
90.25786,367.661
90.35786,324.984
90.45786,426.856
90.55786,717.884
90.65786,767.449
90.75786,474.11
90.85786,264.212
90.95786,235.05
91.05786,284.928
91.15786,272.302
91.25786,200.475
91.35786,163.206
91.45786,146.133
91.55786,145.215
91.65786,139.711
91.75786,140.365
91.85786,143.645
91.95786,143.622
92.05786,145.3684
92.15786,139.719
92.25786,140.01
92.35786,143.045
92.45786,137.057
92.55786,131.392
92.65786,132.171
92.75786,136.925
92.85786,136.184
92.95786,134.481
93.05786,135.07
93.15786,132.9229
93.25786,134.374
93.35786,135.298
93.45786,136.141
93.55786,137.086
93.65786,136.137
93.75786,137.547
93.85786,136.145
93.95786,132.562
94.05786,139.191
94.15786,137.136
94.25786,135.707
94.35786,141.737
94.45786,141.405
94.55786,145.688
94.65786,146.299
94.75786,153.46
94.85786,175.666
94.95786,252.146
95.05786,390.644
95.15786,372.191
95.25786,261.1018
95.35786,178.272
95.45786,154.689
95.55786,152.48
95.65786,145.774
95.75786,141.5346
95.85786,148.59
95.95786,157.022
96.05786,183.8897
96.15786,209.549
96.25786,195.263
96.35786,160.151
96.45786,143.0433
96.55786,139.3356
96.65786,138.256
96.75786,141.206
96.85786,140.347
96.95786,142.0888
97.05786,141.282
97.15786,145.603
97.25786,150.0249
97.35786,164.5407
97.45786,213.254
97.55786,249.754
97.65786,224.45
97.75786,173.116
97.85786,150.001
97.95786,146.631
98.05786,144.9128
98.15786,147.106
98.25786,145.431
98.35786,150.515
98.45786,148.421
98.55786,160.643
98.65786,168.231
98.75786,188.472
98.85786,224.511
98.95786,319.188
99.05786,656.6714
99.15786,1024.72
99.25786,969.317
99.35786,681.117
99.45786,372.6262
99.55786,228.716
99.65786,188.067
99.75786,179.86
99.85786,165.446
99.95786,159.384
100.058,151.531
100.158,152.31
100.258,150.544
100.358,172.674
100.458,216.855
100.558,283.499
100.658,256.229
100.758,185.576
100.858,162.377
100.958,149.075
101.058,152.089
101.158,152.948
101.258,148.346
101.358,147.568
101.458,140.796
101.558,146.721
101.658,147.9516
101.758,145.3803
101.858,145.5636
101.958,146.314
102.058,142.183
102.158,141.053
102.258,148.497
102.358,150.131
102.458,143.227
102.558,145.347
102.658,144.976
102.758,145.13
102.858,143.017
102.958,143.171
103.058,146.895
103.158,147.348
103.258,140.092
103.358,144.191
103.458,141.762
103.558,143.376
103.658,143.425
103.758,142.525
103.858,144.605
103.958,144.923
104.058,146.758
104.158,148.612
104.258,145.05
104.358,148.765
104.458,155.663
104.558,150.347
104.658,159.645
104.758,159.4529
104.858,183.237
104.958,231.369
105.058,391.584
105.158,533.746
105.258,386.91
105.358,238.733
105.458,189.769
105.558,183.5451
105.658,185.933
105.758,174.447
105.858,174.092
105.958,180.319
106.058,239.419
106.158,288.342
106.258,239.673
106.358,182.266
106.458,164.686
106.558,158.968
106.658,155.512
106.758,151.514
106.858,154.295
106.958,163.671
107.058,163.835
107.158,163.3007
107.258,169.964
107.358,175.8284
107.458,201.704
107.558,273.458
107.658,468.193
107.758,574.795
107.858,492.304
107.958,551.168
108.058,471.508
108.158,304.055
108.258,217.162
108.358,197.65
108.458,212.179
108.558,276.2996
108.658,454.737
108.758,597.1872
108.858,460.83
108.958,456.018
109.058,473.98
109.158,337.465
109.258,236.204
109.358,219.766
109.458,268.826
109.558,334.348
109.658,268.334
109.758,200.271
109.858,173.653
109.958,170.4866
110.058,174.357
110.158,192.47
110.258,253.894
110.358,423.245
110.458,557.465
110.558,378.392
110.658,236.79
110.758,182.903
110.858,168.798
110.958,163.17
111.058,161.145
111.158,159.2274
111.258,173.63
111.358,200.761
111.458,188.313
111.558,164.832
111.658,157.37
111.758,151.979
111.858,145.541
111.958,150.981
112.058,146.975
112.158,153.447
112.258,163.435
112.358,180.838
112.458,196.679
112.558,169.811
112.658,162.169
112.758,159.763
112.858,153.083
112.958,154.844
113.058,153.212
113.158,151.947
113.258,151.285
113.358,152.882
113.458,154.602
113.558,151.319
113.658,152.441
113.758,151.372
113.858,153.052
113.958,160.414
114.058,172.127
114.158,163.824
114.258,161.0486
114.358,154.433
114.458,153.717
114.558,158.075
114.658,164.809
114.758,168.181
114.858,159.519
114.958,152.0191
115.058,156.291
115.158,153.44
115.258,156.782
115.358,155.718
115.458,155.214
115.558,159.521
115.658,157.909
115.758,163.149
115.858,159.7327
115.958,160.558
116.058,161.822
116.158,168.931
116.258,177.375
116.358,201.363
116.458,221.2028
116.558,270.168
116.658,426.501
116.758,818.662
116.858,1494.84
116.958,1653.35
117.058,926.2636
117.158,456.631
117.258,272.964
117.358,223.411
117.458,204.093
117.558,179.9134
117.658,172.391
117.758,162.546
117.858,166.319
117.958,168.473
118.058,169.575
118.158,174.32
118.258,192.349
118.358,249.738
118.458,340.307
118.558,331.115
118.658,267.645
118.758,242.007
118.858,207.185
118.958,180.048
119.058,167.39
119.158,165.25
119.258,168.452
119.358,162.833
119.458,176.277
119.558,193.54
119.658,193.994
119.758,194.616
119.858,212.16
119.958,221.267
120.058,221.873
120.158,273.569
120.258,410.871
120.358,403.343
120.458,277.665
120.558,205.371
120.658,176.698
120.758,171.858
120.858,170.506
120.958,166.943
121.058,160.369
121.158,164.61
121.258,173.043
121.358,181.2707
121.458,198.624
121.558,230.097
121.658,307.126
121.758,557.8008
121.858,966.579
121.958,948.624
122.058,562.983
122.158,325.328
122.258,234.703
122.358,199.052
122.458,183.4863
122.558,179.584
122.658,167.228
122.758,163.024
122.858,161.841
122.958,161.222
123.058,156.459
123.158,160.46
123.258,167.138
123.358,165.508
123.458,173.046
123.558,197.551
123.658,213.834
123.758,191.362
123.858,172.974
123.958,157.976
124.058,154.083
124.158,154.875
124.258,153.271
124.358,153.228
124.458,155.127
124.558,159.155
124.658,151.944
124.758,156.477
124.858,154.082
124.958,155.248
125.058,153.453
125.158,153.555
125.258,155.726
125.358,161.2438
125.458,162.926
125.558,161.847
125.658,169.643
125.758,179.224
125.858,200.237
125.958,238.683
126.058,367.089
126.158,561.23
126.258,569.692
126.358,387.891
126.458,276.484
126.558,217.777
126.658,195.858
126.758,188.8981
126.858,183.839
126.958,198.753
127.058,213.3295
127.158,266.267
127.258,383.3552
127.358,543.691
127.458,582.9501
127.558,441.301
127.658,363.901
127.758,410.99
127.858,554.313
127.958,557.753
128.058,388.152
128.158,270.769
128.258,215.248
128.358,190.827
128.458,183.332
128.558,175.189
128.658,174.3395
128.758,171.273
128.858,166.936
128.958,170.971
129.058,163.031
129.158,163.332
129.258,161.224
129.358,164.61
129.458,162.809
129.558,165.083
129.658,161.283
129.708,161.174