File: data/xrd_icdd_PDF/00-058-0246 (PD3).csv
10,2114
10.06,2164
10.12,2184
10.18,2110
10.24,2143
10.3,2155
10.36,2099
10.42,2126
10.48,2129
10.54,2089
10.6,2128
10.66,2046
10.72,2104
10.78,2106
10.84,2142
10.9,2042
10.96,2043
11.02,2165
11.08,2043
11.14,2099
11.2,2035
11.26,2074
11.32,2028
11.38,2113
11.44,2098
11.5,2129
11.56,2134
11.62,2024
11.68,2058
11.74,2076
11.8,2075
11.86,2137
11.92,2158
11.98,2102
12.04,2139
12.1,2027
12.16,2123
12.22,2056
12.28,2122
12.34,2169
12.4,2061
12.46,2093
12.52,2084
12.58,2173
12.64,2145
12.7,2072
12.76,2094
12.82,2112
12.88,2170
12.94,2201
13,2134
13.06,2115
13.12,2090
13.18,2107
13.24,2129
13.3,2107
13.36,2121
13.42,2096
13.48,2097
13.54,2062
13.6,2139
13.66,2111
13.72,2094
13.78,2125
13.84,2121
13.9,2069
13.96,2012
14.02,2093
14.08,2122
14.14,2002
14.2,1990
14.26,1978
14.32,2051
14.38,2123
14.44,2104
14.5,2048
14.56,2023
14.62,1979
14.68,2001
14.74,1934
14.8,1959
14.86,1970
14.92,1923
14.98,2025
15.04,2009
15.1,1897
15.16,2033
15.22,2015
15.28,2014
15.34,1911
15.4,1986
15.46,2007
15.52,1833
15.58,1845
15.64,1916
15.7,1967
15.76,1936
15.82,2019
15.88,1934
15.94,1975
16,1919
16.06,1986
16.12,1887
16.18,1967
16.24,1976
16.3,1973
16.36,1852
16.42,1885
16.48,1977
16.54,1947
16.6,1926
16.66,1872
16.72,2040
16.78,2145
16.84,2277
16.9,2360
16.96,2488
17.02,2298
17.08,2095
17.14,1946
17.2,1971
17.26,1854
17.32,1910
17.38,1917
17.44,1879
17.5,1981
17.56,1954
17.62,1833
17.68,1887
17.74,1864
17.8,1956
17.86,1909
17.92,1912
17.98,1831
18.04,1881
18.1,1895
18.16,1879
18.22,1826
18.28,1809
18.34,1883
18.4,1797
18.46,1843
18.52,1801
18.58,1813
18.64,1812
18.7,1848
18.76,1837
18.82,1884
18.88,1840
18.94,1833
19,1838
19.06,1785
19.12,1799
19.18,1787
19.24,1765
19.3,1729
19.36,1818
19.42,1787
19.48,1855
19.54,1875
19.6,1800
19.66,1739
19.72,1859
19.78,1820
19.84,1881
19.9,1863
19.96,1793
20.02,1798
20.08,1729
20.14,1832
20.2,1798
20.26,1763
20.32,1797
20.38,1726
20.44,1820
20.5,1750
20.56,1932
20.62,1750
20.68,1888
20.74,1924
20.8,1818
20.86,1788
20.92,1765
20.98,1852
21.04,1831
21.1,1815
21.16,1825
21.22,1831
21.28,1830
21.34,1726
21.4,1954
21.46,1840
21.52,1837
21.58,1745
21.64,1778
21.7,1705
21.76,1695
21.82,1735
21.88,1760
21.94,1829
22,1791
22.06,1774
22.12,1783
22.18,1766
22.24,1810
22.3,1788
22.36,1769
22.42,1771
22.48,1852
22.54,1685
22.6,1766
22.66,1757
22.72,1757
22.78,1843
22.84,1711
22.9,1767
22.96,1875
23.02,1861
23.08,1806
23.14,1815
23.2,1847
23.26,1809
23.32,1896
23.38,2254
23.44,2786
23.5,3044
23.56,3216
23.62,2760
23.68,2299
23.74,1961
23.8,1771
23.86,1812
23.92,1749
23.98,1760
24.04,1752
24.1,1658
24.16,1701
24.22,1722
24.28,1645
24.34,1635
24.4,1680
24.46,1743
24.52,1727
24.58,1743
24.64,1724
24.7,1670
24.76,1694
24.82,1621
24.88,1706
24.94,1624
25,1743
25.06,1638
25.12,1729
25.18,1679
25.24,1699
25.3,1713
25.36,1732
25.42,1731
25.48,1625
25.54,1685
25.6,1725
25.66,1699
25.72,1692
25.78,1674
25.84,1667
25.9,1651
25.96,1665
26.02,1634
26.08,1702
26.14,1656
26.2,1695
26.26,1763
26.32,1695
26.38,1733
26.44,1720
26.5,1725
26.56,1687
26.62,1674
26.68,1668
26.74,1664
26.8,1638
26.86,1599
26.92,1620
26.98,1602
27.04,1679
27.1,1657
27.16,1654
27.22,1639
27.28,1766
27.34,1639
27.4,1665
27.46,1645
27.52,1610
27.58,1723
27.64,1661
27.7,1630
27.76,1718
27.82,1724
27.88,1808
27.94,1861
28,1904
28.06,2182
28.12,2673
28.18,3263
28.24,3666
28.3,3484
28.36,2775
28.42,2190
28.48,1853
28.54,1790
28.6,1712
28.66,1634
28.72,1674
28.78,1691
28.84,1703
28.9,1669
28.96,1671
29.02,1729
29.08,1618
29.14,1649
29.2,1643
29.26,1655
29.32,1643
29.38,1715
29.44,1615
29.5,1721
29.56,1591
29.62,1641
29.68,1560
29.74,1645
29.8,1753
29.86,1606
29.92,1593
29.98,1637
30.04,1666
30.1,1639
30.16,1667
30.22,1646
30.28,1695
30.34,1591
30.4,1650
30.46,1714
30.52,1784
30.58,1736
30.64,1779
30.7,1767
30.76,1910
30.82,2175
30.88,2677
30.94,3507
31,4110
31.06,4051
31.12,3406
31.18,2489
31.24,1982
31.3,1703
31.36,1655
31.42,1673
31.48,1667
31.54,1603
31.6,1671
31.66,1712
31.72,1763
31.78,1671
31.84,1671
31.9,1678
31.96,1580
32.02,1693
32.08,1694
32.14,1624
32.2,1598
32.26,1666
32.32,1674
32.38,1608
32.44,1657
32.5,1578
32.56,1598
32.62,1625
32.68,1704
32.74,1623
32.8,1665
32.86,1712
32.92,1686
32.98,1781
33.04,1758
33.1,1741
33.16,1815
33.22,1630
33.28,1736
33.34,1587
33.4,1725
33.46,1734
33.52,1847
33.58,1833
33.64,1982
33.7,1990
33.76,2068
33.82,2592
33.88,3482
33.94,4670
34,5334
34.06,4837
34.12,3686
34.18,2567
34.24,1979
34.3,1860
34.36,1869
34.42,1813
34.48,1786
34.54,1753
34.6,1722
34.66,1662
34.72,1712
34.78,1654
34.84,1621
34.9,1627
34.96,1724
35.02,1640
35.08,1610
35.14,1752
35.2,1791
35.26,1903
35.32,1952
35.38,2134
35.44,2331
35.5,2682
35.56,2760
35.62,2722
35.68,2576
35.74,2297
35.8,1925
35.86,1758
35.92,1744
35.98,1759
36.04,1646
36.1,1735
36.16,1704
36.22,1679
36.28,1648
36.34,1703
36.4,1717
36.46,1778
36.52,1653
36.58,1751
36.64,1788
36.7,1718
36.76,1697
36.82,1660
36.88,1743
36.94,1619
37,1713
37.06,1665
37.12,1748
37.18,1818
37.24,1925
37.3,2069
37.36,2338
37.42,2693
37.48,3232
37.54,3459
37.6,3183
37.66,2725
37.72,2543
37.78,2707
37.84,2999
37.9,3061
37.96,2960
38.02,2599
38.08,2248
38.14,2071
38.2,1927
38.26,1813
38.32,1767
38.38,1784
38.44,1694
38.5,1687
38.56,1754
38.62,1686
38.68,1676
38.74,1703
38.8,1665
38.86,1733
38.92,1670
38.98,1803
39.04,1809
39.1,1941
39.16,2239
39.22,2722
39.28,3401
39.34,3738
39.4,3526
39.46,2977
39.52,2468
39.58,2024
39.64,1821
39.7,1718
39.76,1701
39.82,1672
39.88,1731
39.94,1638
40,1707
40.06,1673
40.12,1655
40.18,1699
40.24,1692
40.3,1618
40.36,1690
40.42,1672
40.48,1684
40.54,1652
40.6,1612
40.66,1727
40.72,1619
40.78,1637
40.84,1685
40.9,1729
40.96,1713
41.02,1634
41.08,1628
41.14,1736
41.2,1699
41.26,1650
41.32,1668
41.38,1627
41.44,1621
41.5,1685
41.56,1560
41.62,1597
41.68,1687
41.74,1623
41.8,1583
41.86,1607
41.92,1693
41.98,1618
42.04,1558
42.1,1722
42.16,1619
42.22,1700
42.28,1639
42.34,1697
42.4,1657
42.46,1621
42.52,1697
42.58,1669
42.64,1618
42.7,1649
42.76,1578
42.82,1597
42.88,1631
42.94,1618
43,1615
43.06,1641
43.12,1638
43.18,1659
43.24,1698
43.3,1583
43.36,1565
43.42,1622
43.48,1662
43.54,1613
43.6,1589
43.66,1595
43.72,1606
43.78,1662
43.84,1649
43.9,1688
43.96,1621
44.02,1584
44.08,1686
44.14,1673
44.2,1665
44.26,1610
44.32,1670
44.38,1613
44.44,1686
44.5,1652
44.56,1743
44.62,2041
44.68,2291
44.74,2594
44.8,2757
44.86,2507
44.92,2232
44.98,2012
45.04,1762
45.1,1755
45.16,1646
45.22,1692
45.28,1681
45.34,1614
45.4,1649
45.46,1614
45.52,1592
45.58,1701
45.64,1615
45.7,1596
45.76,1620
45.82,1620
45.88,1605
45.94,1639
46,1619
46.06,1666
46.12,1656
46.18,1633
46.24,1717
46.3,1624
46.36,1699
46.42,1710
46.48,1759
46.54,1943
46.6,2184
46.66,2499
46.72,2559
46.78,2471
46.84,2279
46.9,2023
46.96,1989
47.02,1877
47.08,1796
47.14,1813
47.2,1696
47.26,1736
47.32,1622
47.38,1653
47.44,1591
47.5,1641
47.56,1612
47.62,1619
47.68,1620
47.74,1591
47.8,1629
47.86,1707
47.92,1678
47.98,1585
48.04,1649
48.1,1576
48.16,1733
48.22,1709
48.28,1724
48.34,1691
48.4,1612
48.46,1738
48.52,1600
48.58,1635
48.64,1616
48.7,1647
48.76,1688
48.82,1622
48.88,1579
48.94,1594
49,1572
49.06,1706
49.12,1644
49.18,1556
49.24,1613
49.3,1645
49.36,1637
49.42,1549
49.48,1580
49.54,1607
49.6,1564
49.66,1619
49.72,1542
49.78,1633
49.84,1611
49.9,1622
49.96,1594
50.02,1628
50.08,1660
50.14,1583
50.2,1598
50.26,1656
50.32,1631
50.38,1614
50.44,1603
50.5,1651
50.56,1667
50.62,1647
50.68,1674
50.74,1630
50.8,1711
50.86,1606
50.92,1681
50.98,1683
51.04,1631
51.1,1534
51.16,1594
51.22,1629
51.28,1632
51.34,1627
51.4,1625
51.46,1679
51.52,1579
51.58,1556
51.64,1603
51.7,1608
51.76,1592
51.82,1611
51.88,1661
51.94,1677
52,1591
52.06,1658
52.12,1641
52.18,1654
52.24,1594
52.3,1689
52.36,1593
52.42,1648
52.48,1609
52.54,1568
52.6,1667
52.66,1611
52.72,1559
52.78,1625
52.84,1626
52.9,1564
52.96,1579
53.02,1599
53.08,1640
53.14,1629
53.2,1588
53.26,1594
53.32,1705
53.38,1690
53.44,1806
53.5,1937
53.56,1969
53.62,2061
53.68,1965
53.74,1860
53.8,1701
53.86,1691
53.92,1666
53.98,1669
54.04,1646
54.1,1654
54.16,1618
54.22,1632
54.28,1649
54.34,1628
54.4,1580
54.46,1647
54.52,1624
54.58,1627
54.64,1622
54.7,1656
54.76,1582
54.82,1638
54.88,1635
54.94,1613
55,1687
55.06,1806
55.12,1812
55.18,1931
55.24,2007
55.3,2091
55.36,2140
55.42,2241
55.48,2316
55.54,2260
55.6,2058
55.66,1986
55.72,2011
55.78,1788
55.84,1791
55.9,1703
55.96,1672
56.02,1686
56.08,1650
56.14,1589
56.2,1650
56.26,1654
56.32,1677
56.38,1600
56.44,1521
56.5,1611
56.56,1583
56.62,1655
56.68,1638
56.74,1677
56.8,1595
56.86,1614
56.92,1657
56.98,1605
57.04,1598
57.1,1545
57.16,1578
57.22,1635
57.28,1644
57.34,1591
57.4,1713
57.46,1647
57.52,1685
57.58,1656
57.64,1579
57.7,1686
57.76,1666
57.82,1626
57.88,1605
57.94,1628
58,1653
58.06,1609
58.12,1660
58.18,1703
58.24,1667
58.3,1750
58.36,1797
58.42,1999
58.48,2014
58.54,1969
58.6,1909
58.66,1924
58.72,1847
58.78,1781
58.84,1751
58.9,1747
58.96,1644
59.02,1720
59.08,1730
59.14,1735
59.2,1752
59.26,1770
59.32,1826
59.38,1951
59.44,1928
59.5,2027
59.56,2186
59.62,2194
59.68,2170
59.74,2206
59.8,2236
59.86,2300
59.92,2396
59.98,2392
60.04,2568
60.1,2642
60.16,2481
60.22,2229
60.28,2110
60.34,1997
60.4,1829
60.46,1705
60.52,1731
60.58,1687
60.64,1692
60.7,1564
60.76,1658
60.82,1609
60.88,1612
60.94,1545
61,1592
61.06,1508
61.12,1631
61.18,1632
61.24,1657
61.3,1582
61.36,1580
61.42,1583
61.48,1559
61.54,1630
61.6,1606
61.66,1597
61.72,1661
61.78,1623
61.84,1643
61.9,1593
61.96,1642
62.02,1659
62.08,1664
62.14,1630
62.2,1615
62.26,1671
62.32,1604
62.38,1614
62.44,1585
62.5,1630
62.56,1584
62.62,1641
62.68,1602
62.74,1556
62.8,1556
62.86,1594
62.92,1596
62.98,1603
63.04,1667
63.1,1583
63.16,1616
63.22,1578
63.28,1583
63.34,1595
63.4,1570
63.46,1620
63.52,1637
63.58,1617
63.64,1516
63.7,1595
63.76,1609
63.82,1720
63.88,1670
63.94,1573
64,1694
64.06,1577
64.12,1534
64.18,1616
64.24,1597
64.3,1592
64.36,1696
64.42,1615
64.48,1647
64.54,1792
64.6,1910
64.66,1904
64.72,1919
64.78,1964
64.84,1917
64.9,1886
64.96,1914
65.02,1820
65.08,1726
65.14,1638
65.2,1676
65.26,1642
65.32,1624
65.38,1741
65.44,1635
65.5,1662
65.56,1627
65.62,1647
65.68,1664
65.74,1584
65.8,1604
65.86,1651
65.92,1598
65.98,1638
66.04,1646
66.1,1592
66.16,1704
66.22,1594
66.28,1671
66.34,1682
66.4,1657
66.46,1648
66.52,1569
66.58,1652
66.64,1689
66.7,1611
66.76,1680
66.82,1653
66.88,1789
66.94,1813
67,1883
67.06,1792
67.12,1798
67.18,1862
67.24,1802
67.3,1675
67.36,1685
67.42,1666
67.48,1770
67.54,1661
67.6,1680
67.66,1588
67.72,1657
67.78,1621
67.84,1648
67.9,1694
67.96,1627
68.02,1664
68.08,1571
68.14,1694
68.2,1622
68.26,1599
68.32,1584
68.38,1587
68.44,1621
68.5,1646
68.56,1542
68.62,1635
68.68,1688
68.74,1630
68.8,1691
68.86,1683
68.92,1723
68.98,1787
69.04,1771
69.1,1802
69.16,2052
69.22,2037
69.28,2019
69.34,1979
69.4,1949
69.46,1882
69.52,1828
69.58,1719
69.64,1702
69.7,1702
69.76,1692
69.82,1764
69.88,1744
69.94,1741
70,1852
70.06,1663
70.12,1738
70.18,1739
70.24,1714
70.3,1713
70.36,1744
70.42,1699
70.48,1686
70.54,1656
70.6,1658
70.66,1655
70.72,1659
70.78,1695
70.84,1665
70.9,1660
70.96,1570
71.02,1650
71.08,1629
71.14,1617
71.2,1616
71.26,1596
71.32,1646
71.38,1665
71.44,1639
71.5,1609
71.56,1652
71.62,1669
71.68,1650
71.74,1771
71.8,1656
71.86,1675
71.92,1623
71.98,1718
72.04,1735
72.1,1620
72.16,1664
72.22,1617
72.28,1643
72.34,1693
72.4,1727
72.46,1756
72.52,1732
72.58,1758
72.64,1663
72.7,1642
72.76,1703
72.82,1757
72.88,1696
72.94,1642
73,1670
73.06,1666
73.12,1666
73.18,1585
73.24,1657
73.3,1714
73.36,1660
73.42,1725
73.48,1697
73.54,1766
73.6,1860
73.66,1890
73.72,1872
73.78,1970
73.84,1939
73.9,1845
73.96,1806
74.02,1854
74.08,1838
74.14,1722
74.2,1674
74.26,1694
74.32,1687
74.38,1682
74.44,1690
74.5,1674
74.56,1655
74.62,1637
74.68,1621
74.74,1674
74.8,1645
74.86,1836
74.92,1692
74.98,1744
75.04,1747
75.1,1869
75.16,1911
75.22,2029
75.28,1900
75.34,1902
75.4,1946
75.46,1862
75.52,1961
75.58,1847
75.64,1843
75.7,1812
75.76,1800
75.82,1752
75.88,1776
75.94,1747
76,1748
76.06,1723
76.12,1660
76.18,1657
76.24,1739
76.3,1653
76.36,1628
76.42,1618
76.48,1625
76.54,1615
76.6,1659
76.66,1708
76.72,1705
76.78,1659
76.84,1691
76.9,1685
76.96,1613
77.02,1614
77.08,1654
77.14,1681
77.2,1564
77.26,1636
77.32,1679
77.38,1647
77.44,1691
77.5,1735
77.56,1847
77.62,1744
77.68,1806
77.74,1902
77.8,2024
77.86,1951
77.92,1929
77.98,1929
78.04,1882
78.1,1764
78.16,1733
78.22,1731
78.28,1656
78.34,1675
78.4,1688
78.46,1657
78.52,1712
78.58,1663
78.64,1596
78.7,1630
78.76,1769
78.82,1759
78.88,1820
78.94,1844
79,1844
79.06,1834
79.12,1716
79.18,1723
79.24,1695
79.3,1652
79.36,1662
79.42,1677
79.48,1622
79.54,1641
79.6,1637
79.66,1611
79.72,1599
79.78,1631
79.84,1695
79.9,1696
79.96,1722
80.02,1617
80.08,1546
80.14,1727
80.2,1652
80.26,1629
80.32,1547
80.38,1645
80.44,1706
80.5,1616
80.56,1629
80.62,1596
80.68,1638
80.74,1659
80.8,1715
80.86,1675
80.92,1690
80.98,1706
81.04,1651
81.1,1698
81.16,1651
81.22,1672
81.28,1682
81.34,1615
81.4,1672
81.46,1615
81.52,1613
81.58,1601
81.64,1635
81.7,1669
81.76,1629
81.82,1663
81.88,1711
81.94,1641
82,1741
82.06,1726
82.12,1756
82.18,1783
82.24,1896
82.3,1825
82.36,1813
82.42,1748
82.48,1751
82.54,1680
82.6,1705
82.66,1664
82.72,1637
82.78,1670
82.84,1675
82.9,1661
82.96,1702
83.02,1681
83.08,1657
83.14,1594
83.2,1611
83.26,1552
83.32,1639
83.38,1607
83.44,1632
83.5,1668
83.56,1716
83.62,1684
83.68,1763
83.74,1635
83.8,1703
83.86,1675
83.92,1704
83.98,1768
84.04,1760
84.1,1788
84.16,1675
84.22,1687
84.28,1699
84.34,1650
84.4,1628
84.46,1648
84.52,1629
84.58,1653
84.64,1787
84.7,1678
84.76,1643
84.82,1662
84.88,1655
84.94,1656
85,1681
85.06,1654
85.12,1665
85.18,1660
85.24,1703
85.3,1651
85.36,1619
85.42,1659
85.48,1638
85.54,1647
85.6,1663
85.66,1602
85.72,1692
85.78,1730
85.84,1723
85.9,1729
85.96,1750
86.02,1809
86.08,1835
86.14,1775
86.2,1739
86.26,1749
86.32,1765
86.38,1737
86.44,1762
86.5,1726
86.56,1722
86.62,1742
86.68,1662
86.74,1670
86.8,1630
86.86,1591
86.92,1642
86.98,1689
87.04,1659
87.1,1625
87.16,1694
87.22,1722
87.28,1635
87.34,1518
87.4,1687
87.46,1613
87.52,1691
87.58,1635
87.64,1676
87.7,1641
87.76,1638
87.82,1606
87.88,1707
87.94,1668
88,1659
88.06,1634
88.12,1683
88.18,1649
88.24,1685
88.3,1693
88.36,1636
88.42,1708
88.48,1618
88.54,1625
88.6,1704
88.66,1666
88.72,1672
88.78,1643
88.84,1609
88.9,1661
88.96,1694
89.02,1713
89.08,1677
89.14,1694
89.2,1706
89.26,1766
89.32,1684
89.38,1698
89.44,1609
89.5,1770
89.56,1635
89.62,1750
89.68,1721
89.74,1754
89.8,1764
89.86,1726
89.92,1722
89.98,1731