File: data/xrd_icdd_PDF/00-059-0185 (PD3).csv
5,1372
5.08,1343
5.16,1424
5.24,1380
5.32,1299
5.4,1278
5.48,1402
5.56,1205
5.64,1321
5.72,1380
5.8,1110
5.88,1168
5.96,1285
6.04,1110
6.12,1080
6.2,1066
6.28,964
6.36,1066
6.44,1146
6.52,1022
6.6,1000
6.68,1007
6.76,1037
6.84,1029
6.92,1044
7,1015
7.08,1007
7.16,891
7.24,891
7.32,891
7.4,905
7.48,847
7.56,840
7.64,905
7.72,869
7.8,847
7.88,810
7.96,803
8.04,730
8.12,818
8.2,781
8.28,737
8.36,715
8.44,606
8.52,781
8.6,774
8.68,672
8.76,774
8.84,686
8.92,730
9,715
9.08,672
9.16,745
9.24,650
9.32,737
9.4,730
9.48,672
9.56,715
9.64,650
9.72,708
9.8,745
9.88,540
9.96,694
10.04,642
10.12,591
10.2,606
10.28,613
10.36,606
10.44,548
10.52,520
10.6,518
10.68,548
10.76,540
10.84,518
10.92,518
11,526
11.08,475
11.16,485
11.24,478
11.32,496
11.4,438
11.48,504
11.56,460
11.64,440
11.72,453
11.8,489
11.88,540
11.96,533
12.04,423
12.12,445
12.2,407
12.28,445
12.36,402
12.44,402
12.52,431
12.6,453
12.68,394
12.76,423
12.84,402
12.92,467
13,475
13.08,540
13.16,540
13.24,467
13.32,438
13.4,445
13.48,482
13.56,358
13.64,409
13.72,409
13.8,407
13.88,380
13.96,380
14.04,453
14.12,350
14.2,321
14.28,387
14.36,365
14.44,341
14.52,314
14.6,343
14.68,385
14.76,370
14.84,329
14.92,314
15,292
15.08,350
15.16,299
15.24,314
15.32,321
15.4,365
15.48,307
15.56,358
15.64,387
15.72,453
15.8,694
15.88,540
15.96,436
16.04,385
16.12,343
16.2,380
16.28,256
16.36,314
16.44,307
16.52,307
16.6,314
16.68,256
16.76,270
16.84,336
16.92,380
17,409
17.08,336
17.16,307
17.24,314
17.32,292
17.4,292
17.48,307
17.56,263
17.64,241
17.72,270
17.8,204
17.88,263
17.96,299
18.04,256
18.12,234
18.2,299
18.28,256
18.36,241
18.44,219
18.52,285
18.6,234
18.68,225
18.76,241
18.84,314
18.92,292
19,256
19.08,248
19.16,219
19.24,277
19.32,226
19.4,350
19.48,409
19.56,438
19.64,270
19.72,234
19.8,219
19.88,277
19.96,270
20.04,270
20.12,204
20.2,204
20.28,219
20.36,205
20.44,248
20.52,409
20.6,586
20.68,505
20.76,248
20.84,190
20.92,204
21,197
21.08,226
21.16,248
21.24,168
21.32,190
21.4,219
21.48,234
21.56,241
21.64,212
21.72,183
21.8,146
21.88,204
21.96,161
22.04,204
22.12,204
22.2,204
22.28,204
22.36,183
22.44,204
22.52,197
22.6,197
22.68,234
22.76,336
22.84,624
22.92,475
23,313
23.08,219
23.16,226
23.24,204
23.32,248
23.4,413
23.48,775
23.56,915
23.64,715
23.72,596
23.8,485
23.88,318
23.96,218
24.04,248
24.12,263
24.2,204
24.28,263
24.36,263
24.44,234
24.52,234
24.6,212
24.68,265
24.76,175
24.84,296
24.92,301
25,210
25.08,263
25.16,183
25.24,190
25.32,183
25.4,204
25.48,226
25.56,256
25.64,236
25.72,321
25.8,277
25.88,241
25.96,299
26.04,307
26.12,267
26.2,362
26.28,825
26.36,1483
26.44,1405
26.52,761
26.6,402
26.68,365
26.76,336
26.84,307
26.92,219
27,212
27.08,285
27.16,241
27.24,241
27.32,307
27.4,205
27.48,172
27.56,280
27.64,264
27.72,518
27.8,781
27.88,861
27.96,577
28.04,321
28.12,256
28.2,234
28.28,292
28.36,372
28.44,299
28.52,263
28.6,398
28.68,457
28.76,358
28.84,270
28.92,241
29,204
29.08,226
29.16,299
29.24,307
29.32,285
29.4,314
29.48,292
29.56,292
29.64,259
29.72,212
29.8,256
29.88,277
29.96,346
30.04,328
30.12,611
30.2,1129
30.28,1937
30.36,1655
30.44,854
30.52,482
30.6,467
30.68,489
30.76,970
30.84,1416
30.92,1229
31,694
31.08,496
31.16,279
31.24,253
31.32,246
31.4,225
31.48,177
31.56,209
31.64,167
31.72,253
31.8,402
31.88,588
31.96,516
32.04,247
32.12,221
32.2,183
32.28,243
32.36,254
32.44,301
32.52,264
32.6,295
32.68,454
32.76,702
32.84,1891
32.92,3300
33,3051
33.08,1630
33.16,685
33.24,428
33.32,362
33.4,305
33.48,382
33.56,338
33.64,500
33.72,629
33.8,1272
33.88,3016
33.96,3684
34.04,2575
34.12,1554
34.2,1802
34.28,3201
34.36,3414
34.44,2471
34.52,2080
34.6,2179
34.68,1739
34.76,1023
34.84,784
34.92,1144
35,2533
35.08,3682
35.16,2959
35.24,1530
35.32,728
35.4,473
35.48,367
35.56,277
35.64,282
35.72,297
35.8,302
35.88,251
35.96,231
36.04,194
36.12,230
36.2,220
36.28,229
36.36,310
36.44,441
36.52,484
36.6,377
36.68,290
36.76,260
36.84,220
36.92,266
37,223
37.08,255
37.16,212
37.24,372
37.32,285
37.4,285
37.48,292
37.56,321
37.64,292
37.72,350
37.8,423
37.88,560
37.96,818
38.04,2104
38.12,4244
38.2,4221
38.28,2595
38.36,1175
38.44,754
38.52,898
38.6,1531
38.68,1949
38.76,1526
38.84,971
38.92,589
39,526
39.08,540
39.16,569
39.24,730
39.32,1348
39.4,3398
39.48,6433
39.56,6027
39.64,3648
39.72,1998
39.8,2185
39.88,2856
39.96,2344
40.04,1314
40.12,717
40.2,472
40.28,397
40.36,340
40.44,355
40.52,379
40.6,359
40.68,314
40.76,320
40.84,282
40.92,270
41,219
41.08,234
41.16,327
41.24,322
41.32,215
41.4,241
41.48,209
41.56,258
41.64,263
41.72,409
41.8,394
41.88,445
41.96,394
42.04,365
42.12,365
42.2,307
42.28,314
42.36,270
42.44,292
42.52,248
42.6,321
42.68,248
42.76,234
42.84,285
42.92,341
43,336
43.08,494
43.16,907
43.24,1541
43.32,1552
43.4,1377
43.48,1051
43.56,650
43.64,438
43.72,431
43.8,387
43.88,336
43.96,336
44.04,350
44.12,329
44.2,320
44.28,345
44.36,335
44.44,350
44.52,321
44.6,374
44.68,467
44.76,606
44.84,431
44.92,380
45,373
45.08,259
45.16,316
45.24,252
45.32,215
45.4,233
45.48,239
45.56,261
45.64,243
45.72,257
45.8,270
45.88,350
45.96,301
46.04,343
46.12,402
46.2,270
46.28,392
46.36,604
46.44,708
46.52,555
46.6,496
46.68,421
46.76,349
46.84,256
46.92,372
47,292
47.08,256
47.16,319
47.24,329
47.32,248
47.4,271
47.48,234
47.56,234
47.64,299
47.72,314
47.8,270
47.88,248
47.96,270
48.04,385
48.12,402
48.2,416
48.28,329
48.36,307
48.44,276
48.52,308
48.6,336
48.68,389
48.76,284
48.84,256
48.92,402
49,314
49.08,285
49.16,372
49.24,467
49.32,634
49.4,1178
49.48,1471
49.56,1358
49.64,835
49.72,517
49.8,419
49.88,465
49.96,511
50.04,518
50.12,518
50.2,380
50.28,358
50.36,336
50.44,292
50.52,307
50.6,369
50.68,309
50.76,320
50.84,309
50.92,406
51,312
51.08,409
51.16,365
51.24,321
51.32,321
51.4,307
51.48,307
51.56,321
51.64,263
51.72,307
51.8,416
51.88,484
51.96,526
52.04,533
52.12,482
52.2,387
52.28,327
52.36,298
52.44,317
52.52,299
52.6,330
52.68,511
52.76,484
52.84,489
52.92,518
53,482
53.08,403
53.16,438
53.24,612
53.32,764
53.4,646
53.48,619
53.56,503
53.64,679
53.72,723
53.8,628
53.88,555
53.96,540
54.04,669
54.12,669
54.2,815
54.28,771
54.36,611
54.44,480
54.52,365
54.6,394
54.68,387
54.76,482
54.84,438
54.92,511
55,511
55.08,562
55.16,934
55.24,1150
55.32,1033
55.4,880
55.48,625
55.56,560
55.64,370
55.72,511
55.8,533
55.88,475
55.96,526
56.04,704
56.12,769
56.2,905
56.28,1398
56.36,1462
56.44,1164
56.52,853
56.6,593
56.68,498
56.76,389
56.84,428
56.92,326
57,366
57.08,367
57.16,413
57.24,393
57.32,544
57.4,691
57.48,605
57.56,540
57.64,533
57.72,380
57.8,307
57.88,394
57.96,402
58.04,402
58.12,569
58.2,876
58.28,1316
58.36,1321
58.44,1094
58.52,835
58.6,523
58.68,418
58.76,365
58.84,414
58.92,438
59,820
59.08,1037
59.16,889
59.24,810
59.32,681
59.4,540
59.48,467
59.56,433
59.64,353
59.72,355
59.8,327
59.88,332
59.96,302
60.04,295
60.12,303
60.2,320
60.28,329
60.36,369
60.44,347
60.52,350
60.6,394
60.68,380
60.76,387
60.84,540
60.92,723
61,701
61.08,730
61.16,672
61.24,591
61.32,672
61.4,541
61.48,550
61.56,405
61.64,347
61.72,515
61.8,636
61.88,717
61.96,688
62.04,649
62.12,555
62.2,494
62.28,569
62.36,394
62.44,402
62.52,387
62.6,376
62.68,381
62.76,339
62.84,334
62.92,299
63,375
63.08,420
63.16,335
63.24,373
63.32,366
63.4,418
63.48,423
63.56,382
63.64,358
63.72,372
63.8,431
63.88,318
63.96,422
64.04,322
64.12,471
64.2,356
64.28,408
64.36,374
64.44,310
64.52,314
64.6,423
64.68,467
64.76,380
64.84,380
64.92,387
65,394
65.08,467
65.16,635
65.24,1110
65.32,1577
65.4,1576
65.48,1273
65.56,1084
65.64,679
65.72,453
65.8,438
65.88,380
65.96,496
66.04,450
66.12,353
66.2,422
66.28,381
66.36,414
66.44,637
66.52,908
66.6,801
66.68,684
66.76,598
66.84,482
66.92,526
67,409
67.08,409
67.16,343
67.24,372
67.32,431
67.4,343
67.48,372
67.56,307
67.64,394
67.72,409
67.8,426
67.88,506
67.96,613
68.04,767
68.12,869
68.2,949
68.28,686
68.36,650
68.44,533
68.52,402
68.6,518
68.68,453
68.76,562
68.84,468
68.92,496
69,443
69.08,386
69.16,423
69.24,456
69.32,466
69.4,522
69.48,739
69.56,966
69.64,869
69.72,796
69.8,643
69.88,471
69.96,541
70.04,393
70.12,372
70.2,388
70.28,475
70.36,504
70.44,533
70.52,496
70.6,409
70.68,453
70.76,365
70.84,409
70.92,365
71,336
71.08,387
71.16,438
71.24,513
71.32,630
71.4,584
71.48,404
71.56,436
71.64,424
71.72,355
71.8,365
71.88,406
71.96,469
72.04,675
72.12,784
72.2,720
72.28,868
72.36,735
72.44,496
72.52,511
72.6,555
72.68,599
72.76,548
72.84,635
72.92,650
73,752
73.08,840
73.16,562
73.24,504
73.32,394
73.4,299
73.48,277
73.56,277
73.64,307
73.72,387
73.8,489
73.88,591
73.96,584
74.04,475
74.12,518
74.2,387
74.28,423
74.36,358
74.44,606
74.52,526
74.6,599
74.68,591
74.76,730
74.84,759
74.92,737
75,949
75.08,577
75.16,642
75.24,701
75.32,562
75.4,445
75.48,358
75.56,350
75.64,314
75.72,394
75.8,358
75.88,329
75.96,402
76.04,642
76.12,774
76.2,825
76.28,657
76.36,540
76.44,453
76.52,409
76.6,387
76.68,336
76.76,358
76.84,263
76.92,321
77,314
77.08,350
77.16,336
77.24,350
77.32,409
77.4,759
77.48,759
77.56,445
77.64,569
77.72,482
77.8,380
77.88,343
77.96,307
78.04,292
78.12,263
78.2,270
78.28,292
78.36,343
78.44,380
78.52,380
78.6,321
78.68,314
78.76,270
78.84,270
78.92,263
79,248
79.08,219
79.16,219
79.24,277
79.32,263
79.4,314
79.48,292
79.56,285
79.64,256
79.72,307
79.8,321
79.88,372
79.96,354
80.04,342
80.12,387
80.2,445
80.28,484
80.36,649
80.44,764
80.52,542
80.6,533
80.68,539
80.76,664
80.84,613
80.92,606
81,496
81.08,548
81.16,548
81.24,526
81.32,599
81.4,774
81.48,840
81.56,745
81.64,832
81.72,993
81.8,1022
81.88,591
81.96,584
82.04,584
82.12,460
82.2,372
82.28,321
82.36,321
82.44,343
82.52,394
82.6,350
82.68,380
82.76,423
82.84,475
82.92,664
83,555
83.08,555
83.16,905
83.24,1066
83.32,986
83.4,628
83.48,548
83.56,526
83.64,409
83.72,387
83.8,387
83.88,496
83.96,672
84.04,723
84.12,642
84.2,577
84.28,591
84.36,431
84.44,372
84.52,387
84.6,380
84.68,387
84.76,416
84.84,518
84.92,606
85,613
85.08,526
85.16,584
85.24,467
85.32,402
85.4,365
85.48,307
85.56,350
85.64,402
85.72,482
85.8,613
85.88,737
85.96,657
86.04,591
86.12,555
86.2,621
86.28,650
86.36,715
86.44,840
86.52,876
86.6,883
86.68,913
86.76,686
86.84,591
86.92,496
87,423
87.08,365
87.16,336
87.24,307
87.32,292
87.4,380
87.48,343
87.56,336
87.64,409
87.72,292
87.8,299
87.88,336
87.96,445
88.04,548
88.12,467
88.2,423
88.28,496
88.36,526
88.44,372
88.52,321
88.6,372
88.68,365
88.76,358
88.84,482
88.92,460
89,489
89.08,380
89.16,409
89.24,285
89.32,307
89.4,263
89.48,380
89.56,380
89.64,270
89.72,321
89.8,299
89.88,263
89.96,299
90.04,292
90.12,299
90.2,270
90.28,226
90.36,270
90.44,285
90.52,329
90.6,336
90.68,350
90.76,555
90.84,533
90.92,628
91,650
91.08,628
91.16,569
91.24,511
91.32,365
91.4,394
91.48,358
91.56,409
91.64,277
91.72,365
91.8,350
91.88,365
91.96,292
92.04,409
92.12,409
92.2,445
92.28,394
92.36,635
92.44,489
92.52,642
92.6,635
92.68,679
92.76,715
92.84,672
92.92,599
93,504
93.08,569
93.16,489
93.24,387
93.32,372
93.4,533
93.48,606
93.56,745
93.64,657
93.72,496
93.8,555
93.88,533
93.96,489
94.04,409
94.12,372
94.2,475
94.28,555
94.36,518
94.44,511
94.52,562
94.6,511
94.68,650
94.76,467
94.84,409
94.92,423
95,387
95.08,402
95.16,409
95.24,380
95.32,445
95.4,394
95.48,555
95.56,599
95.64,701
95.72,533
95.8,555
95.88,672
95.96,920
96.04,993
96.12,1000
96.2,803
96.28,701
96.36,869
96.44,861
96.52,956
96.6,956
96.68,759
96.76,642
96.84,606
96.92,635
97,482
97.08,438
97.16,445
97.24,445
97.32,453
97.4,380
97.48,409
97.56,416
97.64,387
97.72,504
97.8,416
97.88,343
97.96,504
98.04,635
98.12,861
98.2,715
98.28,679
98.36,518
98.44,657
98.52,533
98.6,599
98.68,591
98.76,613
98.84,599
98.92,475
99,423
99.08,533
99.16,526
99.24,423
99.32,358
99.4,358
99.48,511
99.56,518
99.64,526
99.72,540
99.8,599
99.88,496
99.96,555
100.04,460
100.12,438
100.2,380
100.28,307
100.36,358
100.44,350
100.52,277
100.6,358
100.68,299
100.76,336
100.84,234
100.92,365
101,365
101.08,387
101.16,329
101.24,380
101.32,387
101.4,329
101.48,285
101.56,372
101.64,350
101.72,336
101.8,292
101.88,343
101.96,277
102.04,314
102.12,416
102.2,350
102.28,431
102.36,299
102.44,321
102.52,350
102.6,343
102.68,234
102.76,292
102.84,409
102.92,394
103,329
103.08,277
103.16,336
103.24,372
103.32,387
103.4,372
103.48,321
103.56,350
103.64,445
103.72,394
103.8,467
103.88,445
103.96,445
104.04,380
104.12,453
104.2,438
104.28,365
104.36,438
104.44,416
104.52,504
104.6,423
104.68,504
104.76,533
104.84,555
104.92,584
105,657
105.08,526
105.16,555
105.24,621
105.32,577
105.4,621
105.48,650
105.56,511
105.64,606
105.72,577
105.8,577
105.88,584
105.96,606
106.04,825
106.12,832
106.2,504
106.28,599
106.36,635
106.44,584
106.52,599
106.6,482
106.68,467
106.76,526
106.84,423
106.92,482
107,423
107.08,518
107.16,460
107.24,394
107.32,453
107.4,423
107.48,526
107.56,715
107.64,767
107.72,788
107.8,781
107.88,526
107.96,555
108.04,613
108.12,569
108.2,496
108.28,416
108.36,423
108.44,380
108.52,423
108.6,423
108.68,599
108.76,599
108.84,701
108.92,628
109,555
109.08,496
109.16,577
109.24,584
109.32,577
109.4,475
109.48,489
109.56,635
109.64,686
109.72,898
109.8,737
109.88,694
109.96,679
110.04,679
110.12,730
110.2,993
110.28,942
110.36,796
110.44,701
110.52,898
110.6,825
110.68,847
110.76,840
110.84,774
110.92,876
111,978
111.08,891
111.16,978
111.24,978
111.32,898
111.4,898
111.48,840
111.56,730
111.64,905
111.72,694
111.8,672
111.88,591
111.96,555
112.04,526
112.12,526
112.2,526
112.28,526
112.36,496
112.44,394
112.52,460
112.6,511
112.68,402
112.76,438
112.84,482
112.92,438
113,394
113.08,482
113.16,380
113.24,372
113.32,431
113.4,387
113.48,358
113.56,365
113.64,460
113.72,394
113.8,460
113.88,569
113.96,577
114.04,569
114.12,599
114.2,548
114.28,460
114.36,475
114.44,548
114.52,533
114.6,621
114.68,526
114.76,533
114.84,562
114.92,555
115,489
115.08,467
115.16,496
115.24,621
115.32,672
115.4,788
115.48,920
115.56,759
115.64,708
115.72,657
115.8,628
115.88,810
115.96,730
116.04,730
116.12,759
116.2,628
116.28,533
116.36,511
116.44,613
116.52,657
116.6,723
116.68,840
116.76,759
116.84,759
116.92,708
117,672
117.08,628
117.16,745
117.24,774
117.32,613
117.4,533
117.48,599
117.56,562
117.64,613
117.72,621
117.8,642
117.88,810
117.96,876
118.04,1044
118.12,825
118.2,891
118.28,825
118.36,861
118.44,847
118.52,672
118.6,752
118.68,752
118.76,679
118.84,767
118.92,788
119,854
119.08,657
119.16,613
119.24,672
119.32,511
119.4,540
119.48,584
119.56,518
119.64,489
119.72,540
119.8,438
119.88,475
119.96,343
120.04,387