File: data/xrd_icdd_PDF/00-051-0147 (PD3).csv
5,512
5.1,568
5.2,538
5.3,498
5.4,493
5.5,473
5.6,493
5.7,524
5.8,490
5.9,476
6,476
6.1,482
6.2,459
6.3,493
6.4,496
6.5,479
6.6,507
6.7,462
6.8,462
6.9,482
7,504
7.1,518
7.2,498
7.3,526
7.4,496
7.5,468
7.6,437
7.7,487
7.8,442
7.9,465
8,448
8.1,434
8.2,465
8.3,451
8.4,434
8.5,442
8.6,456
8.7,423
8.8,417
8.9,426
9,448
9.1,451
9.2,412
9.3,395
9.4,451
9.5,414
9.6,451
9.7,426
9.8,409
9.9,448
10,459
10.1,406
10.2,398
10.3,451
10.4,437
10.5,448
10.6,448
10.7,403
10.8,409
10.9,442
11,448
11.1,462
11.2,437
11.3,414
11.4,451
11.5,451
11.6,412
11.7,417
11.8,465
11.9,476
12,470
12.1,535
12.2,748
12.3,5592
12.4,2990
12.5,666
12.6,538
12.7,524
12.8,451
12.9,462
13,437
13.1,476
13.2,456
13.3,465
13.4,468
13.5,456
13.6,465
13.7,440
13.8,468
13.9,434
14,392
14.1,451
14.2,442
14.3,434
14.4,448
14.5,451
14.6,465
14.7,386
14.8,440
14.9,389
15,428
15.1,451
15.2,392
15.3,409
15.4,400
15.5,409
15.6,451
15.7,414
15.8,414
15.9,392
16,420
16.1,448
16.2,454
16.3,451
16.4,448
16.5,493
16.6,490
16.7,454
16.8,440
16.9,476
17,459
17.1,442
17.2,442
17.3,456
17.4,776
17.5,1128
17.6,498
17.7,479
17.8,442
17.9,451
18,431
18.1,395
18.2,409
18.3,420
18.4,400
18.5,400
18.6,442
18.7,392
18.8,406
18.9,395
19,398
19.1,414
19.2,395
19.3,412
19.4,420
19.5,389
19.6,412
19.7,392
19.8,434
19.9,442
20,403
20.1,375
20.2,364
20.3,409
20.4,409
20.5,395
20.6,420
20.7,381
20.8,409
20.9,437
21,392
21.1,409
21.2,423
21.3,440
21.4,1260
21.5,1221
21.6,479
21.7,423
21.8,420
21.9,423
22,412
22.1,409
22.2,437
22.3,414
22.4,409
22.5,361
22.6,406
22.7,384
22.8,406
22.9,378
23,395
23.1,468
23.2,409
23.3,367
23.4,398
23.5,350
23.6,406
23.7,400
23.8,367
23.9,414
24,434
24.1,448
24.2,412
24.3,437
24.4,378
24.5,420
24.6,540
24.7,865
24.8,8347
24.9,3329
25,636
25.1,521
25.2,454
25.3,412
25.4,414
25.5,392
25.6,417
25.7,381
25.8,378
25.9,381
26,395
26.1,367
26.2,381
26.3,412
26.4,389
26.5,412
26.6,465
26.7,491
26.8,509
26.9,560
27,613
27.1,630
27.2,633
27.3,669
27.4,784
27.5,1204
27.6,1907
27.7,7750
27.8,48804
27.9,8812
28,1910
28.1,1095
28.2,781
28.3,680
28.4,647
28.5,585
28.6,557
28.7,532
28.8,479
28.9,543
29,510
29.1,528
29.2,543
29.3,567
29.4,552
29.5,658
29.6,672
29.7,692
29.8,707
29.9,734
30,784
30.1,932
30.2,1182
30.3,2164
30.4,6860
30.5,71092
30.6,23915
30.7,2884
30.8,1448
30.9,1067
31,854
31.1,683
31.2,739
31.3,641
31.4,580
31.5,580
31.6,501
31.7,608
31.8,599
31.9,566
32,521
32.1,585
32.2,540
32.3,512
32.4,549
32.5,582
32.6,577
32.7,689
32.8,829
32.9,1459
33,15551
33.1,10111
33.2,1302
33.3,764
33.4,582
33.5,552
33.6,470
33.7,459
33.8,510
33.9,468
34,465
34.1,454
34.2,468
34.3,456
34.4,465
34.5,428
34.6,420
34.7,470
34.8,493
34.9,501
35,510
35.1,599
35.2,927
35.3,9260
35.4,6003
35.5,952
35.6,582
35.7,468
35.8,462
35.9,420
36,409
36.1,392
36.2,364
36.3,417
36.4,456
36.5,462
36.6,434
36.7,440
36.8,426
36.9,456
37,470
37.1,493
37.2,521
37.3,672
37.4,1064
37.5,4057
37.6,17234
37.7,8464
37.8,1201
37.9,689
38,591
38.1,468
38.2,451
38.3,456
38.4,423
38.5,437
38.6,386
38.7,389
38.8,389
38.9,364
39,344
39.1,342
39.2,350
39.3,358
39.4,364
39.5,378
39.6,344
39.7,314
39.8,319
39.9,328
40,342
40.1,325
40.2,370
40.3,336
40.4,364
40.5,325
40.6,314
40.7,333
40.8,308
40.9,325
41,347
41.1,330
41.2,350
41.3,333
41.4,356
41.5,381
41.6,524
41.7,2792
41.8,1798
41.9,577
42,370
42.1,403
42.2,378
42.3,316
42.4,372
42.5,364
42.6,370
42.7,344
42.8,372
42.9,339
43,339
43.1,440
43.2,442
43.3,437
43.4,577
43.5,899
43.6,5768
43.7,5544
43.8,3290
43.9,748
44,549
44.1,473
44.2,431
44.3,386
44.4,370
44.5,384
44.6,367
44.7,336
44.8,370
44.9,372
45,389
45.1,381
45.2,420
45.3,510
45.4,717
45.5,2663
45.6,4785
45.7,3906
45.8,806
45.9,484
46,442
46.1,381
46.2,386
46.3,406
46.4,389
46.5,400
46.6,353
46.7,386
46.8,381
46.9,358
47,428
47.1,490
47.2,622
47.3,1473
47.4,4172
47.5,3312
47.6,717
47.7,479
47.8,470
47.9,420
48,420
48.1,350
48.2,386
48.3,451
48.4,434
48.5,468
48.6,468
48.7,546
48.8,692
48.9,1109
49,2229
49.1,19886
49.2,8747
49.3,5964
49.4,1254
49.5,731
49.6,585
49.7,470
49.8,456
49.9,448
50,398
50.1,428
50.2,442
50.3,372
50.4,370
50.5,406
50.6,448
50.7,574
50.8,1126
50.9,3167
51,2288
51.1,666
51.2,468
51.3,431
51.4,398
51.5,372
51.6,384
51.7,347
51.8,353
51.9,395
52,381
52.1,392
52.2,456
52.3,582
52.4,899
52.5,6518
52.6,2400
52.7,2512
52.8,669
52.9,456
53,423
53.1,350
53.2,364
53.3,361
53.4,361
53.5,350
53.6,333
53.7,367
53.8,358
53.9,328
54,342
54.1,549
54.2,582
54.3,470
54.4,347
54.5,330
54.6,302
54.7,300
54.8,311
54.9,319
55,333
55.1,350
55.2,325
55.3,367
55.4,361
55.5,370
55.6,370
55.7,720
55.8,1736
55.9,890
56,834
56.1,392
56.2,342
56.3,361
56.4,367
56.5,314
56.6,325
56.7,322
56.8,372
56.9,372
57,389
57.1,409
57.2,454
57.3,865
57.4,1316
57.5,1123
57.6,521
57.7,409
57.8,381
57.9,378
58,412
58.1,414
58.2,445
58.3,498
58.4,526
58.5,591
58.6,818
58.7,1098
58.8,2444
58.9,14014
59,8585
59.1,10035
59.2,1954
59.3,949
59.4,714
59.5,549
59.6,479
59.7,473
59.8,465
59.9,493
60,451
60.1,571
60.2,622
60.3,1142
60.4,7563
60.5,2120
60.6,3214
60.7,750
60.8,473
60.9,406
61,406
61.1,372
61.2,372
61.3,378
61.4,347
61.5,361
61.6,336
61.7,412
61.8,375
61.9,610
62,1459
62.1,742
62.2,616
62.3,361
62.4,389
62.5,367
62.6,344
62.7,344
62.8,356
62.9,356
63,384
63.1,434
63.2,476
63.3,672
63.4,2976
63.5,2181
63.6,2562
63.7,857
63.8,454
63.9,414
64,384
64.1,389
64.2,386
64.3,344
64.4,386
64.5,378
64.6,431
64.7,524
64.8,1176
64.9,2976
65,1652
65.1,1562
65.2,613
65.3,426
65.4,372
65.5,356
65.6,330
65.7,302
65.8,319
65.9,319
66,336
66.1,300
66.2,311
66.3,316
66.4,325
66.5,319
66.6,322
66.7,356
66.8,330
66.9,336
67,339
67.1,305
67.2,319
67.3,361
67.4,378
67.5,476
67.6,482
67.7,840
67.8,4298
67.9,1616
68,2598
68.1,860
68.2,454
68.3,428
68.4,370
68.5,325
68.6,342
68.7,311
68.8,280
68.9,311
69,294
69.1,314
69.2,496
69.3,445
69.4,384
69.5,367
69.6,316
69.7,322
69.8,316
69.9,294
70,294
70.1,325
70.2,339
70.3,361
70.4,370
70.5,479
70.6,1602
70.7,776
70.8,1033
70.9,580
71,344
71.1,339
71.2,330
71.3,336
71.4,297
71.5,316
71.6,358
71.7,370
71.8,395
71.9,742
72,2142
72.1,1176
72.2,1308
72.3,736
72.4,420
72.5,364
72.6,370
72.7,330
72.8,342
72.9,325
73,370
73.1,389
73.2,518
73.3,1288
73.4,2184
73.5,1025
73.6,1490
73.7,577
73.8,428
73.9,386
74,347
74.1,322
74.2,328
74.3,344
74.4,350
74.5,420
74.6,647
74.7,1582
74.8,596
74.9,958
75,426
75.1,364
75.2,305
75.3,319
75.4,344
75.5,372
75.6,361
75.7,454
75.8,456
75.9,540
76,952
76.1,3576
76.2,3576
76.3,1876
76.4,2733
76.5,756
76.6,426
76.7,423
76.8,372
76.9,356
77,311
77.1,336
77.2,336
77.3,305
77.4,339
77.5,414
77.6,344
77.7,339
77.8,294
77.9,336
78,308
78.1,283
78.2,333
78.3,347
78.4,339
78.5,356
78.6,364
78.7,470
78.8,1386
78.9,1137
79,680
79.1,1098
79.2,434
79.3,367
79.4,350
79.5,330
79.6,305
79.7,322
79.8,342
79.9,350
80,510
80.1,1039
80.2,1022
80.3,633
80.4,703
80.5,412
80.6,367
80.7,316
80.8,325
80.9,339
81,381
81.1,389
81.2,448
81.3,540
81.4,1154
81.5,3592
81.6,1333
81.7,1660
81.8,1243
81.9,526
82,403
82.1,344
82.2,328
82.3,333
82.4,322
82.5,311
82.6,294
82.7,311
82.8,339
82.9,344
83,277
83.1,344
83.2,330
83.3,291
83.4,305
83.5,328
83.6,316
83.7,364
83.8,389
83.9,465
84,806
84.1,2425
84.2,2590
84.3,1453
84.4,1506
84.5,1128
84.6,496
84.7,378
84.8,353
84.9,308
85,288
85.1,288
85.2,311
85.3,291
85.4,294
85.5,263
85.6,294
85.7,294
85.8,300
85.9,300
86,272
86.1,339
86.2,294
86.3,314
86.4,356
86.5,308
86.6,484
86.7,916
86.8,1742
86.9,1851
87,949
87.1,1414
87.2,742
87.3,392
87.4,353
87.5,302
87.6,288
87.7,288
87.8,260
87.9,277
88,274
88.1,266
88.2,255
88.3,280
88.4,244
88.5,274
88.6,255
88.7,255
88.8,238
88.9,258
89,263
89.1,305
89.2,316
89.3,367
89.4,750
89.5,848
89.6,462
89.7,602
89.8,510
89.9,353
90,300
90.1,266
90.2,258
90.3,266
90.4,263
90.5,302
90.6,336
90.7,577
90.8,367
90.9,333
91,448
91.1,347
91.2,274
91.3,244
91.4,269
91.5,302
91.6,286
91.7,302
91.8,381
91.9,470
92,1140
92.1,1627
92.2,955
92.3,902
92.4,946
92.5,529
92.6,322
92.7,294
92.8,297
92.9,269
93,300
93.1,300
93.2,308
93.3,364
93.4,745
93.5,437
93.6,364
93.7,580
93.8,414
93.9,305
94,269
94.1,291
94.2,314
94.3,288
94.4,308
94.5,308
94.6,445
94.7,848
94.8,1316
94.9,512
95,622
95.1,843
95.2,414
95.3,328
95.4,325
95.5,302
95.6,316
95.7,342
95.8,370
95.9,524
96,1053
96.1,759
96.2,501
96.3,638
96.4,554
96.5,364
96.6,372
96.7,311
96.8,286
96.9,314
97,333
97.1,322
97.2,431
97.3,728
97.4,1736
97.5,1070
97.6,633
97.7,960
97.8,834
97.9,420
98,353
98.1,333
98.2,316
98.3,308
98.4,319
98.5,322
98.6,381
98.7,540
98.8,935
98.9,535
99,426
99.1,605
99.2,426
99.3,322
99.4,314
99.5,314
99.6,291
99.7,322
99.8,328
99.9,440
100,773
100.1,1252
100.2,770
100.3,563
100.4,714
100.5,605
100.6,398
100.7,336
100.8,286
100.9,330
101,274
101.1,302
101.2,308
101.3,311
101.4,392
101.5,501
101.6,347
101.7,286
101.8,384
101.9,339
102,347
102.1,288
102.2,269
102.3,297
102.4,297
102.5,454
102.6,860
102.7,1196
102.8,560
102.9,515
103,759
103.1,599
103.2,386
103.3,350
103.4,325
103.5,322
103.6,339
103.7,342
103.8,400
103.9,650
104,1182
104.1,846
104.2,778
104.3,675
104.4,792
104.5,582
104.6,490
104.7,358
104.8,328
104.9,314
105,300
105.1,305
105.2,322
105.3,314
105.4,336
105.5,423
105.6,330
105.7,300
105.8,328
105.9,344
106,283
106.1,294
106.2,286
106.3,302
106.4,286
106.5,274
106.6,302
106.7,384
106.8,510
106.9,885
107,482
107.1,378
107.2,440
107.3,605
107.4,437
107.5,370
107.6,378
107.7,370
107.8,426
107.9,409
108,568
108.1,1036
108.2,2486
108.3,2604
108.4,1221
108.5,983
108.6,1548
108.7,1442
108.8,708
108.9,431
109,375
109.1,330
109.2,330
109.3,342
109.4,300
109.5,316
109.6,311
109.7,300
109.8,286
109.9,283
110,314
110.1,297
110.2,302
110.3,288
110.4,314
110.5,294
110.6,260
110.7,300
110.8,398
110.9,532
111,918
111.1,557
111.2,386
111.3,426
111.4,577
111.5,442
111.6,347
111.7,330
111.8,302
111.9,263
112,305
112.1,308
112.2,288
112.3,342
112.4,493
112.5,476
112.6,426
112.7,316
112.8,389
112.9,442
113,364
113.1,300
113.2,288
113.3,305
113.4,274
113.5,333
113.6,316
113.7,342
113.8,451
113.9,759
114,588
114.1,468
114.2,339
114.3,476
114.4,448
114.5,412
114.6,344
114.7,336
114.8,319
114.9,300
115,330
115.1,386
115.2,549
115.3,507
115.4,361
115.5,319
115.6,372
115.7,490
115.8,381
115.9,300
116,325
116.1,291
116.2,311
116.3,308
116.4,372
116.5,364
116.6,557
116.7,888
116.8,854
116.9,899
117,672
117.1,602
117.2,655
117.3,647
117.4,571
117.5,440
117.6,358
117.7,322
117.8,319
117.9,308
118,311
118.1,297
118.2,297
118.3,336
118.4,361
118.5,336
118.6,325
118.7,274
118.8,325
118.9,308
119,302
119.1,328
119.2,277
119.3,308
119.4,339
119.5,272
119.6,336
119.7,361
119.8,476
119.9,507
120,459
120.1,364
120.2,350
120.3,389
120.4,409
120.5,370
120.6,342
120.7,330
120.8,308
120.9,311
121,302
121.1,367
121.2,442
121.3,697
121.4,778
121.5,554
121.6,437
121.7,392
121.8,470
121.9,552
122,459
122.1,370
122.2,344
122.3,353
122.4,330
122.5,344
122.6,378
122.7,378
122.8,557
122.9,913
123,958
123.1,616
123.2,465
123.3,459
123.4,619
123.5,658
123.6,518
123.7,395
123.8,381
123.9,342
124,372
124.1,333
124.2,333
124.3,297
124.4,342
124.5,353
124.6,325
124.7,339
124.8,330
124.9,319
125,344
125.1,367
125.2,353
125.3,426
125.4,428
125.5,426
125.6,437
125.7,504
125.8,675
125.9,1098
126,1896
126.1,2150
126.2,2509
126.3,1632
126.4,1086
126.5,1086
126.6,1392
126.7,1420
126.8,1291
126.9,784
127,591
127.1,479
127.2,412
127.3,437
127.4,375
127.5,409
127.6,454
127.7,484
127.8,700
127.9,507
128,398
128.1,381
128.2,431
128.3,498
128.4,512
128.5,468
128.6,414
128.7,384
128.8,378
128.9,440
129,406
129.1,490
129.2,549
129.3,921
129.4,1476
129.5,1459
129.6,1039
129.7,736
129.8,610
129.9,627
130,1000
130.1,930
130.2,675
130.3,507
130.4,468
130.5,434
130.6,406
130.7,428
130.8,400
130.9,515
131,585
131.1,476
131.2,490
131.3,490
131.4,454
131.5,448
131.6,504
131.7,437
131.8,431
131.9,412
132,412
132.1,386
132.2,395
132.3,350
132.4,328
132.5,370
132.6,395
132.7,342
132.8,372
132.9,378
133,392
133.1,428
133.2,398
133.3,364
133.4,442
133.5,356
133.6,353
133.7,414
133.8,367
133.9,389
134,328
134.1,316
134.2,350
134.3,316
134.4,389
134.5,392
134.6,330
134.7,339
134.8,364
134.9,325
135,370
135.1,389
135.2,367
135.3,333
135.4,389
135.5,356
135.6,370
135.7,361
135.8,398
135.9,386
136,395
136.1,392
136.2,462
136.3,512
136.4,630
136.5,834
136.6,1053
136.7,1302
136.8,1263
136.9,932
137,764
137.1,630
137.2,664
137.3,728
137.4,812
137.5,871
137.6,706
137.7,554
137.8,482
137.9,442
138,504
138.1,454
138.2,482
138.3,512
138.4,624
138.5,588
138.6,560
138.7,580
138.8,588
138.9,554
139,510
139.1,518
139.2,524
139.3,482
139.4,476
139.5,524
139.6,524
139.7,420
139.8,384
139.9,440
140,400