File: data/xrd_icdd_PDF/00-070-0155 (PD3).csv
10,491.667
10.05,500
10.1,733.333
10.15,491.667
10.2,533.333
10.25,508.333
10.3,658.333
10.35,491.667
10.4,391.667
10.45,533.333
10.5,550
10.55,391.667
10.6,441.667
10.65,475
10.7,458.333
10.75,408.333
10.8,500
10.85,425
10.9,475
10.95,508.333
11,483.333
11.05,466.667
11.1,466.667
11.15,558.333
11.2,633.333
11.25,541.667
11.3,558.333
11.35,491.667
11.4,575
11.45,541.667
11.5,400
11.55,491.667
11.6,416.667
11.65,425
11.7,483.333
11.75,450
11.8,475
11.85,391.667
11.9,550
11.95,525
12,500
12.05,316.667
12.1,508.333
12.15,450
12.2,441.667
12.25,466.667
12.3,633.333
12.35,375
12.4,433.333
12.45,466.667
12.5,758.333
12.55,1216.67
12.6,1825
12.65,3216.67
12.7,1625
12.75,566.667
12.8,491.667
12.85,333.333
12.9,300
12.95,491.667
13,366.667
13.05,358.333
13.1,283.333
13.15,508.333
13.2,408.333
13.25,350
13.3,425
13.35,383.333
13.4,375
13.45,508.333
13.5,341.667
13.55,308.333
13.6,358.333
13.65,308.333
13.7,391.667
13.75,358.333
13.8,350
13.85,333.333
13.9,250
13.95,383.333
14,275
14.05,266.667
14.1,416.667
14.15,316.667
14.2,375
14.25,375
14.3,266.667
14.35,300
14.4,450
14.45,325
14.5,325
14.55,283.333
14.6,308.333
14.65,325
14.7,350
14.75,416.667
14.8,383.333
14.85,325
14.9,350
14.95,266.667
15,341.667
15.05,266.667
15.1,425
15.15,250
15.2,358.333
15.25,325
15.3,283.333
15.35,308.333
15.4,266.667
15.45,291.667
15.5,241.667
15.55,341.667
15.6,333.333
15.65,233.333
15.7,341.667
15.75,366.667
15.8,366.667
15.85,350
15.9,350
15.95,216.667
16,258.333
16.05,325
16.1,325
16.15,258.333
16.2,316.667
16.25,241.667
16.3,325
16.35,250
16.4,333.333
16.45,275
16.5,358.333
16.55,358.333
16.6,291.667
16.65,258.333
16.7,275
16.75,300
16.8,341.667
16.85,316.667
16.9,291.667
16.95,258.333
17,225
17.05,308.333
17.1,308.333
17.15,283.333
17.2,300
17.25,291.667
17.3,283.333
17.35,250
17.4,325
17.45,375
17.5,308.333
17.55,283.333
17.6,258.333
17.65,216.667
17.7,408.333
17.75,258.333
17.8,266.667
17.85,291.667
17.9,241.667
17.95,291.667
18,316.667
18.05,225
18.1,341.667
18.15,208.333
18.2,225
18.25,300
18.3,308.333
18.35,233.333
18.4,258.333
18.45,325
18.5,250
18.55,250
18.6,291.667
18.65,291.667
18.7,183.333
18.75,225
18.8,325
18.85,275
18.9,200
18.95,258.333
19,183.333
19.05,250
19.1,275
19.15,233.333
19.2,291.667
19.25,266.667
19.3,258.333
19.35,266.667
19.4,391.667
19.45,241.667
19.5,341.667
19.55,216.667
19.6,200
19.65,350
19.7,316.667
19.75,283.333
19.8,300
19.85,325
19.9,250
19.95,191.667
20,291.667
20.05,308.333
20.1,250
20.15,308.333
20.2,275
20.25,150
20.3,258.333
20.35,341.667
20.4,225
20.45,266.667
20.5,241.667
20.55,233.333
20.6,383.333
20.65,350
20.7,308.333
20.75,333.333
20.8,225
20.85,300
20.9,216.667
20.95,208.333
21,225
21.05,216.667
21.1,233.333
21.15,325
21.2,191.667
21.25,233.333
21.3,366.667
21.35,216.667
21.4,291.667
21.45,358.333
21.5,225
21.55,225
21.6,225
21.65,350
21.7,266.667
21.75,325
21.8,275
21.85,333.333
21.9,291.667
21.95,275
22,158.333
22.05,208.333
22.1,325
22.15,266.667
22.2,291.667
22.25,233.333
22.3,300
22.35,341.667
22.4,275
22.45,391.667
22.5,266.667
22.55,291.667
22.6,358.333
22.65,250
22.7,300
22.75,250
22.8,325
22.85,308.333
22.9,266.667
22.95,291.667
23,258.333
23.05,341.667
23.1,258.333
23.15,308.333
23.2,250
23.25,233.333
23.3,258.333
23.35,241.667
23.4,275
23.45,258.333
23.5,283.333
23.55,208.333
23.6,325
23.65,266.667
23.7,258.333
23.75,241.667
23.8,175
23.85,208.333
23.9,325
23.95,291.667
24,191.667
24.05,225
24.1,275
24.15,183.333
24.2,208.333
24.25,225
24.3,291.667
24.35,241.667
24.4,275
24.45,308.333
24.5,258.333
24.55,241.667
24.6,258.333
24.65,308.333
24.7,291.667
24.75,308.333
24.8,291.667
24.85,258.333
24.9,258.333
24.95,291.667
25,291.667
25.05,200
25.1,283.333
25.15,258.333
25.2,225
25.25,375
25.3,383.333
25.35,641.667
25.4,1100
25.45,2783.33
25.5,3308.33
25.55,1775
25.6,508.333
25.65,383.333
25.7,316.667
25.75,358.333
25.8,308.333
25.85,291.667
25.9,391.667
25.95,300
26,291.667
26.05,375
26.1,275
26.15,291.667
26.2,233.333
26.25,258.333
26.3,358.333
26.35,316.667
26.4,400
26.45,308.333
26.5,275
26.55,258.333
26.6,291.667
26.65,233.333
26.7,241.667
26.75,258.333
26.8,225
26.85,233.333
26.9,300
26.95,225
27,316.667
27.05,200
27.1,275
27.15,300
27.2,250
27.25,283.333
27.3,250
27.35,200
27.4,208.333
27.45,325
27.5,200
27.55,283.333
27.6,141.667
27.65,233.333
27.7,141.667
27.75,283.333
27.8,283.333
27.85,225
27.9,158.333
27.95,258.333
28,266.667
28.05,325
28.1,225
28.15,216.667
28.2,275
28.25,241.667
28.3,275
28.35,208.333
28.4,275
28.45,325
28.5,208.333
28.55,216.667
28.6,200
28.65,316.667
28.7,408.333
28.75,225
28.8,266.667
28.85,216.667
28.9,225
28.95,241.667
29,225
29.05,475
29.1,641.667
29.15,1241.67
29.2,3583.33
29.25,10066.7
29.3,7116.67
29.35,4741.67
29.4,908.323
29.45,491.667
29.5,316.667
29.55,333.333
29.6,325
29.65,375
29.7,250
29.75,350
29.8,316.667
29.85,491.667
29.9,1008.33
29.95,2508.33
30,1933.33
30.05,1650
30.1,433.333
30.15,316.667
30.2,216.667
30.25,308.333
30.3,275
30.35,208.333
30.4,150
30.45,200
30.5,133.333
30.55,166.667
30.6,291.667
30.65,233.333
30.7,258.333
30.75,325
30.8,308.333
30.85,216.667
30.9,208.333
30.95,175
31,200
31.05,266.667
31.1,166.667
31.15,241.667
31.2,308.333
31.25,241.667
31.3,183.333
31.35,275
31.4,316.667
31.45,250
31.5,291.667
31.55,279.577
31.6,300.03
31.65,248.648
31.7,299.032
31.75,375
31.8,391.667
31.85,450.826
31.9,441.667
31.95,591.667
32,941.667
32.05,800
32.1,575
32.15,291.667
32.2,241.667
32.25,291.667
32.3,350
32.35,183.333
32.4,283.333
32.45,275
32.5,233.333
32.55,266.667
32.6,158.333
32.65,125
32.7,225
32.75,191.667
32.8,233.333
32.85,191.667
32.9,225
32.95,275
33,200
33.05,183.333
33.1,216.667
33.15,200
33.2,233.333
33.25,158.333
33.3,183.333
33.35,158.333
33.4,183.333
33.45,258.333
33.5,225
33.55,183.333
33.6,191.667
33.65,191.667
33.7,166.667
33.75,200
33.8,150
33.85,183.333
33.9,308.333
33.95,291.667
34,208.333
34.05,258.333
34.1,283.333
34.15,266.667
34.2,283.333
34.25,275
34.3,291.667
34.35,233.333
34.4,375
34.45,291.667
34.5,291.667
34.55,283.333
34.6,383.333
34.65,308.333
34.7,350
34.75,408.333
34.8,533.333
34.85,358.333
34.9,858.333
34.95,1166.67
35,1666.67
35.05,4758.33
35.1,13933.3
35.15,24691.7
35.2,15450
35.25,12266.7
35.3,3816.67
35.35,1541.67
35.4,941.667
35.45,566.667
35.5,441.667
35.55,425
35.6,358.333
35.65,408.333
35.7,341.667
35.75,308.333
35.8,241.667
35.85,258.333
35.9,333.333
35.95,300
36,250
36.05,358.333
36.1,241.667
36.15,225
36.2,225
36.25,150
36.3,275
36.35,241.667
36.4,266.667
36.45,266.667
36.5,191.667
36.55,216.667
36.6,250
36.65,208.333
36.7,183.333
36.75,241.667
36.8,316.667
36.85,216.667
36.9,191.667
36.95,250
37,191.667
37.05,316.667
37.1,233.333
37.15,208.333
37.2,241.667
37.25,200
37.3,208.333
37.35,266.667
37.4,183.333
37.45,183.333
37.5,233.333
37.55,241.667
37.6,216.667
37.65,191.667
37.7,183.333
37.75,125
37.8,233.333
37.85,175
37.9,125
37.95,133.333
38,150
38.05,191.667
38.1,266.667
38.15,166.667
38.2,175
38.25,175
38.3,208.333
38.35,141.667
38.4,225
38.45,291.667
38.5,300
38.55,400
38.6,975
38.65,1375
38.7,741.667
38.75,658.333
38.8,283.333
38.85,241.667
38.9,291.667
38.95,325
39,375
39.05,391.667
39.1,625
39.15,1391.67
39.2,1491.67
39.25,1091.67
39.3,900
39.35,425
39.4,391.667
39.45,391.667
39.5,283.333
39.55,300
39.6,333.333
39.65,200
39.7,183.333
39.75,166.667
39.8,183.333
39.85,200
39.9,183.333
39.95,208.333
40,158.333
40.05,291.667
40.1,216.667
40.15,225
40.2,208.333
40.25,191.667
40.3,208.333
40.35,191.667
40.4,166.667
40.45,166.667
40.5,158.333
40.55,225
40.6,158.333
40.65,225
40.7,166.667
40.75,175
40.8,241.667
40.85,166.667
40.9,183.333
40.95,166.667
41,125
41.05,141.667
41.1,200
41.15,191.667
41.2,133.333
41.25,183.333
41.3,158.333
41.35,133.333
41.4,166.667
41.45,166.667
41.5,225
41.55,208.333
41.6,133.333
41.65,225
41.7,183.333
41.75,216.667
41.8,191.667
41.85,175
41.9,158.333
41.95,175
42,166.667
42.05,166.667
42.1,158.333
42.15,216.667
42.2,175
42.25,166.667
42.3,116.667
42.35,150
42.4,175
42.45,158.333
42.5,150
42.55,91.6667
42.6,116.667
42.65,225
42.7,175
42.75,175
42.8,225
42.85,216.667
42.9,150
42.95,150
43,166.667
43.05,183.333
43.1,308.333
43.15,266.667
43.2,141.667
43.25,225
43.3,241.667
43.35,275
43.4,241.667
43.45,275
43.5,275
43.55,225
43.6,308.333
43.65,475
43.7,441.667
43.75,750
43.8,1483.33
43.85,3941.67
43.9,9550
43.95,6841.67
44,5575
44.05,4408.33
44.1,1591.67
44.15,666.667
44.2,441.667
44.25,366.667
44.3,266.667
44.35,283.333
44.4,208.333
44.45,191.667
44.5,283.333
44.55,241.667
44.6,175
44.65,225
44.7,216.667
44.75,175
44.8,183.333
44.85,125
44.9,208.333
44.95,191.667
45,183.333
45.05,166.667
45.1,141.667
45.15,216.667
45.2,166.667
45.25,191.667
45.3,133.333
45.35,116.667
45.4,208.333
45.45,158.333
45.5,241.667
45.55,133.333
45.6,108.333
45.65,100
45.7,91.6667
45.75,175
45.8,141.667
45.85,183.333
45.9,166.667
45.95,100
46,133.333
46.05,191.667
46.1,108.333
46.15,166.667
46.2,158.333
46.25,125
46.3,100
46.35,116.667
46.4,133.333
46.45,191.667
46.5,125
46.55,208.333
46.6,258.333
46.65,158.333
46.7,166.667
46.75,116.667
46.8,108.333
46.85,100
46.9,125
46.95,175
47,158.333
47.05,141.667
47.1,150
47.15,141.667
47.2,141.667
47.25,158.333
47.3,175
47.35,150
47.4,133.333
47.45,108.333
47.5,191.667
47.55,141.667
47.6,183.333
47.65,116.667
47.7,216.667
47.75,183.333
47.8,183.333
47.85,141.667
47.9,116.667
47.95,200
48,133.333
48.05,208.333
48.1,208.333
48.15,150
48.2,150
48.25,133.333
48.3,158.333
48.35,116.667
48.4,158.333
48.45,175
48.5,158.333
48.55,150
48.6,166.667
48.65,166.667
48.7,150
48.75,66.6667
48.8,166.667
48.85,191.667
48.9,208.333
48.95,133.333
49,141.667
49.05,250
49.1,275
49.15,508.333
49.2,633.333
49.25,500
49.3,416.667
49.35,441.667
49.4,291.667
49.45,125
49.5,83.3333
49.55,166.667
49.6,141.667
49.65,141.667
49.7,158.333
49.75,183.333
49.8,183.333
49.85,116.667
49.9,158.333
49.95,166.667
50,125
50.05,150
50.1,158.333
50.15,108.333
50.2,150
50.25,125
50.3,158.333
50.35,200
50.4,200
50.45,225
50.5,133.333
50.55,175
50.6,241.667
50.65,125
50.7,233.333
50.75,150
50.8,116.667
50.85,175
50.9,133.333
50.95,158.333
51,133.333
51.05,125
51.1,133.333
51.15,191.667
51.2,166.667
51.25,141.667
51.3,175
51.35,100
51.4,175
51.45,175
51.5,158.333
51.55,300
51.6,375
51.65,225
51.7,266.667
51.75,491.667
51.8,1175
51.85,4608.33
51.9,9358.33
51.95,3608.33
52,3525
52.05,4733.33
52.1,1108.33
52.15,483.333
52.2,483.333
52.25,558.333
52.3,1566.67
52.35,3116.67
52.4,1300
52.45,1191.67
52.5,1533.33
52.55,675
52.6,391.667
52.65,200
52.7,258.333
52.75,250
52.8,150
52.85,141.667
52.9,183.333
52.95,250
53,191.667
53.05,133.333
53.1,125
53.15,191.667
53.2,208.333
53.25,166.667
53.3,150
53.35,166.667
53.4,150
53.45,183.333
53.5,233.333
53.55,283.333
53.6,725
53.65,983.333
53.7,516.667
53.75,475
53.8,716.667
53.85,266.667
53.9,225
53.95,208.333
54,216.667
54.05,150
54.1,166.667
54.15,133.333
54.2,141.667
54.25,83.3333
54.3,200
54.35,200
54.4,208.333
54.45,100
54.5,175
54.55,225
54.6,183.333
54.65,141.667
54.7,233.333
54.75,133.333
54.8,216.667
54.85,250
54.9,658.333
54.95,1008.33
55,616.667
55.05,591.667
55.1,483.333
55.15,375
55.2,225
55.25,166.667
55.3,100
55.35,116.667
55.4,116.667
55.45,166.667
55.5,91.6667
55.55,116.667
55.6,216.667
55.65,208.333
55.7,91.6667
55.75,125
55.8,158.333
55.85,100
55.9,133.333
55.95,133.333
56,183.333
56.05,116.667
56.1,150
56.15,91.6667
56.2,233.333
56.25,150
56.3,158.333
56.35,166.667
56.4,175
56.45,133.333
56.5,141.667
56.55,166.667
56.6,125
56.65,141.667
56.7,158.333
56.75,116.667
56.8,75
56.85,108.333
56.9,108.333
56.95,133.333
57,133.333
57.05,108.333
57.1,175
57.15,150
57.2,150
57.25,183.333
57.3,133.333
57.35,91.6667
57.4,166.667
57.45,191.667
57.5,141.667
57.55,141.667
57.6,158.333
57.65,108.333
57.7,150
57.75,100
57.8,75
57.85,83.3333
57.9,183.333
57.95,175
58,125
58.05,141.667
58.1,83.3333
58.15,133.333
58.2,100
58.25,158.333
58.3,133.333
58.35,141.667
58.4,150
58.45,116.667
58.5,250
58.55,283.333
58.6,633.333
58.65,1908.33
58.7,2091.67
58.75,808.333
58.8,983.333
58.85,1175
58.9,591.667
58.95,325
59,166.667
59.05,116.667
59.1,50
59.15,158.333
59.2,141.667
59.25,125
59.3,150
59.35,125
59.4,133.333
59.45,183.333
59.5,150
59.55,125
59.6,83.3333
59.65,175
59.7,108.333
59.75,125
59.8,150
59.85,100
59.9,141.667
59.95,158.333
60,175
60.05,275
60.1,191.667
60.15,166.667
60.2,208.333
60.25,91.6667
60.3,108.333
60.35,225
60.4,166.667
60.45,216.667
60.5,183.333
60.55,208.333
60.6,300
60.65,775
60.7,1641.67
60.75,941.667
60.8,558.333
60.85,833.333
60.9,775
60.95,525
61,600
61.05,1208.33
61.1,2025
61.15,1766.67
61.2,933.333
61.25,1116.67
61.3,966.667
61.35,658.333
61.4,383.333
61.45,275
61.5,183.333
61.55,183.333
61.6,208.333
61.65,133.333
61.7,125
61.75,208.333
61.8,191.667
61.85,166.667
61.9,125
61.95,258.333
62,141.667
62.05,150
62.1,125
62.15,166.667
62.2,133.333
62.25,225
62.3,325
62.35,200
62.4,175
62.45,175
62.5,100
62.55,208.333
62.6,133.333
62.65,141.667
62.7,166.667
62.75,125
62.8,108.333
62.85,133.333
62.9,100
62.95,108.333
63,91.6667
63.05,133.333
63.1,133.333
63.15,116.667
63.2,75
63.25,175
63.3,175
63.35,116.667
63.4,125
63.45,208.333
63.5,191.667
63.55,125
63.6,175
63.65,133.333
63.7,125
63.75,150
63.8,158.333
63.85,175
63.9,166.667
63.95,266.667
64,191.667
64.05,325
64.1,358.333
64.15,1016.67
64.2,3100
64.25,4025
64.3,1650
64.35,1125
64.4,2400
64.45,1516.67
64.5,566.667
64.55,325
64.6,216.667
64.65,166.667
64.7,133.333
64.75,175
64.8,141.667
64.85,141.667
64.9,166.667
64.95,100
65,100
65.05,141.667
65.1,125
65.15,150
65.2,158.333
65.25,108.333
65.3,141.667
65.35,133.333
65.4,91.6667
65.45,108.333
65.5,125
65.55,125
65.6,125
65.65,91.6667
65.7,91.6667
65.75,108.333
65.8,125
65.85,200
65.9,150
65.95,141.667
66,91.6667
66.05,216.667
66.1,75
66.15,116.667
66.2,100
66.25,133.333
66.3,175
66.35,116.667
66.4,266.667
66.45,333.333
66.5,900
66.55,1341.67
66.6,641.667
66.65,525
66.7,633.333
66.75,758.333
66.8,366.667
66.85,341.667
66.9,475
66.95,383.333
67,325
67.05,225
67.1,366.667
67.15,241.667
67.2,233.333
67.25,158.333
67.3,125
67.35,141.667
67.4,158.333
67.45,150
67.5,158.333
67.55,100
67.6,158.333
67.65,175
67.7,133.333
67.75,133.333
67.8,108.333
67.85,141.667
67.9,116.667
67.95,108.333
68,75
68.05,100
68.1,91.6667
68.15,125
68.2,183.333
68.25,150
68.3,166.667
68.35,125
68.4,141.667
68.45,108.333
68.5,108.333
68.55,150
68.6,108.333
68.65,108.333
68.7,116.667
68.75,108.333
68.8,116.667
68.85,91.6667
68.9,116.667
68.95,75
69,58.3333
69.05,125
69.1,166.667
69.15,91.6667
69.2,150
69.25,125
69.3,100
69.35,108.333
69.4,125
69.45,100
69.5,108.333
69.55,141.667
69.6,66.6667
69.65,166.667
69.7,133.333
69.75,108.333
69.8,141.667
69.85,125
69.9,158.333
69.95,133.333
70,141.667
70.05,166.667
70.1,291.667
70.15,350
70.2,608.333
70.25,1700
70.3,2133.33
70.35,1125
70.4,658.333
70.45,1033.33
70.5,1283.33
70.55,550
70.6,175
70.65,225
70.7,233.333
70.75,125
70.8,150
70.85,175
70.9,108.333
70.95,150
71,91.6667
71.05,108.333
71.1,116.667
71.15,116.667
71.2,100
71.25,50
71.3,83.3333
71.35,125
71.4,100
71.45,116.667
71.5,91.6667
71.55,100
71.6,133.333
71.65,100
71.7,50
71.75,141.667
71.8,58.3333
71.85,125
71.9,150
71.95,116.667
72,150
72.05,133.333
72.1,125
72.15,125
72.2,41.6667
72.25,116.667
72.3,116.667
72.35,108.333
72.4,75
72.45,75
72.5,83.3333
72.55,141.667
72.6,50
72.65,116.667
72.7,108.333
72.75,116.667
72.8,116.667
72.85,208.333
72.9,141.667
72.95,108.333
73,150
73.05,91.6667
73.1,83.3333
73.15,116.667
73.2,116.667
73.25,133.333
73.3,158.333
73.35,133.333
73.4,158.333
73.45,150
73.5,33.3333
73.55,141.667
73.6,83.3333
73.65,116.667
73.7,116.667
73.75,58.3333
73.8,141.667
73.85,75
73.9,108.333
73.95,133.333
74,91.6667
74.05,125
74.1,158.333
74.15,108.333
74.2,133.333
74.25,158.333
74.3,266.667
74.35,183.333
74.4,175
74.45,175
74.5,175
74.55,191.667
74.6,133.333
74.65,100
74.7,141.667
74.75,125
74.8,100
74.85,125
74.9,150
74.95,108.333
75,133.333
75.05,66.6667
75.1,141.667
75.15,41.6667
75.2,158.333
75.25,108.333
75.3,125
75.35,100
75.4,91.6667
75.45,141.667
75.5,141.667
75.55,75
75.6,141.667
75.65,150
75.7,108.333
75.75,75
75.8,116.667
75.85,141.667
75.9,166.667
75.95,158.333
76,58.3333
76.05,150
76.1,125
76.15,133.333
76.2,125
76.25,133.333
76.3,141.667
76.35,150
76.4,191.667
76.45,183.333
76.5,133.333
76.55,266.667
76.6,241.667
76.65,341.667
76.7,483.333
76.75,1175
76.8,3050
76.85,3916.67
76.9,1991.67
76.95,991.667
77,1208.33
77.05,2083.33
77.1,1841.67
77.15,675
77.2,241.667
77.25,141.667
77.3,175
77.35,216.667
77.4,158.333
77.45,125
77.5,158.333
77.55,91.6667
77.6,141.667
77.65,141.667
77.7,100
77.75,100
77.8,133.333
77.85,91.6667
77.9,116.667
77.95,125
78,133.333
78.05,125
78.1,133.333
78.15,108.333
78.2,66.6667
78.25,125
78.3,108.333
78.35,175
78.4,175
78.45,116.667
78.5,116.667
78.55,133.333
78.6,108.333
78.65,116.667
78.7,166.667
78.75,125
78.8,166.667
78.85,208.333
78.9,175
78.95,391.667
79,308.333
79.05,250
79.1,116.667
79.15,175
79.2,283.333
79.25,150
79.3,191.667
79.35,141.667
79.4,141.667
79.45,100
79.5,116.667
79.55,133.333
79.6,166.667
79.65,116.667
79.7,133.333
79.75,166.667
79.8,91.6667
79.85,108.333
79.9,108.333
79.95,75
80,141.667