File: data/xrd_icdd_PDF/00-063-0398 (PD3).csv
5,619
5.08,604
5.16,597
5.24,584
5.32,558
5.4,564
5.48,586
5.56,546
5.64,556
5.72,521
5.8,554
5.88,542
5.96,533
6.04,521
6.12,567
6.2,517
6.28,534
6.36,502
6.44,510
6.52,490
6.6,530
6.68,532
6.76,562
6.84,524
6.92,538
7,534
7.08,514
7.16,492
7.24,477
7.32,519
7.4,471
7.48,485
7.56,477
7.64,453
7.72,453
7.8,485
7.88,458
7.96,435
8.04,489
8.12,489
8.2,450
8.28,450
8.36,446
8.44,450
8.52,450
8.6,464
8.68,446
8.76,415
8.84,398
8.92,450
9,446
9.08,450
9.16,419
9.24,391
9.32,446
9.4,398
9.48,442
9.56,415
9.64,412
9.72,415
9.8,381
9.88,381
9.96,398
10.04,437
10.12,376
10.2,385
10.28,364
10.36,381
10.44,412
10.52,410
10.6,356
10.68,385
10.76,359
10.84,399
10.92,367
11,348
11.08,368
11.16,399
11.24,396
11.32,357
11.4,368
11.48,393
11.56,387
11.64,390
11.72,371
11.8,337
11.88,373
11.96,323
12.04,337
12.12,341
12.2,381
12.28,344
12.36,311
12.44,382
12.52,366
12.6,392
12.68,485
12.76,485
12.84,383
12.92,364
13,328
13.08,369
13.16,307
13.24,357
13.32,323
13.4,324
13.48,360
13.56,351
13.64,332
13.72,343
13.8,327
13.88,282
13.96,306
14.04,335
14.12,276
14.2,281
14.28,272
14.36,288
14.44,294
14.52,325
14.6,305
14.68,327
14.76,317
14.84,314
14.92,279
15,264
15.08,282
15.16,326
15.24,261
15.32,321
15.4,287
15.48,259
15.56,287
15.64,316
15.72,289
15.8,294
15.88,261
15.96,296
16.04,264
16.12,265
16.2,266
16.28,284
16.36,271
16.44,310
16.52,285
16.6,243
16.68,294
16.76,308
16.84,415
16.92,450
17,329
17.08,277
17.16,267
17.24,271
17.32,297
17.4,293
17.48,255
17.56,267
17.64,293
17.72,288
17.8,293
17.88,277
17.96,252
18.04,316
18.12,278
18.2,259
18.28,264
18.36,298
18.44,256
18.52,222
18.6,293
18.68,275
18.76,278
18.84,228
18.92,265
19,267
19.08,234
19.16,219
19.24,277
19.32,243
19.4,225
19.48,233
19.56,243
19.64,247
19.72,225
19.8,252
19.88,250
19.96,255
20.04,216
20.12,270
20.2,227
20.28,246
20.36,222
20.44,217
20.52,221
20.6,243
20.68,239
20.76,230
20.84,282
20.92,288
21,312
21.08,415
21.16,900
21.24,623
21.32,413
21.4,345
21.48,293
21.56,249
21.64,230
21.72,271
21.8,224
21.88,240
21.96,234
22.04,212
22.12,215
22.2,249
22.28,225
22.36,205
22.44,262
22.52,265
22.6,230
22.68,236
22.76,240
22.84,274
22.92,358
23,347
23.08,288
23.16,242
23.24,212
23.32,266
23.4,269
23.48,286
23.56,278
23.64,307
23.72,710
23.8,1350
23.88,989
23.96,667
24.04,415
24.12,341
24.2,304
24.28,273
24.36,247
24.44,231
24.52,274
24.6,229
24.68,246
24.76,242
24.84,223
24.92,229
25,268
25.08,252
25.16,244
25.24,321
25.32,368
25.4,519
25.48,1264
25.56,2597
25.64,2458
25.72,1065
25.8,658
25.88,376
25.96,346
26.04,346
26.12,381
26.2,658
26.28,1004
26.36,866
26.44,433
26.52,313
26.6,267
26.68,276
26.76,232
26.84,241
26.92,206
27,242
27.08,231
27.16,225
27.24,215
27.32,264
27.4,217
27.48,237
27.56,208
27.64,220
27.72,203
27.8,246
27.88,249
27.96,255
28.04,258
28.12,235
28.2,221
28.28,241
28.36,213
28.44,216
28.52,219
28.6,264
28.68,209
28.76,263
28.84,244
28.92,216
29,271
29.08,205
29.16,225
29.24,245
29.32,207
29.4,251
29.48,254
29.56,224
29.64,264
29.72,236
29.8,260
29.88,268
29.96,389
30.04,384
30.12,315
30.2,260
30.28,291
30.36,300
30.44,281
30.52,354
30.6,450
30.68,935
30.76,2320
30.84,1506
30.92,658
31,346
31.08,346
31.16,277
31.24,292
31.32,255
31.4,233
31.48,252
31.56,283
31.64,281
31.72,248
31.8,267
31.88,296
31.96,293
32.04,300
32.12,285
32.2,262
32.28,303
32.36,262
32.44,284
32.52,297
32.6,345
32.68,319
32.76,299
32.84,386
32.92,389
33,424
33.08,424
33.16,554
33.24,866
33.32,1385
33.4,2285
33.48,1904
33.56,1125
33.64,994
33.72,1034
33.8,1316
33.88,2302
33.96,5712
34.04,10040
34.12,14142
34.2,9140
34.28,3981
34.36,2839
34.44,4622
34.52,10905
34.6,11390
34.68,7997
34.76,6612
34.84,3756
34.92,1782
35,1027
35.08,739
35.16,590
35.24,530
35.32,514
35.4,454
35.48,462
35.56,445
35.64,543
35.72,778
35.8,1835
35.88,1969
35.96,1408
36.04,818
36.12,668
36.2,658
36.28,1125
36.36,4120
36.44,8413
36.52,5349
36.6,1973
36.68,978
36.76,635
36.84,492
36.92,414
37,365
37.08,389
37.16,331
37.24,341
37.32,331
37.4,309
37.48,312
37.56,350
37.64,330
37.72,316
37.8,381
37.88,397
37.96,378
38.04,405
38.12,438
38.2,496
38.28,581
38.36,742
38.44,1160
38.52,1593
38.6,5072
38.68,13294
38.76,11563
38.84,5331
38.92,1696
39,1004
39.08,985
39.16,965
39.24,1454
39.32,3531
39.4,5539
39.48,4016
39.56,1662
39.64,917
39.72,748
39.8,673
39.88,509
39.96,397
40.04,375
40.12,388
40.2,374
40.28,327
40.36,333
40.44,355
40.52,347
40.6,349
40.68,330
40.76,296
40.84,334
40.92,285
41,300
41.08,306
41.16,346
41.24,308
41.32,275
41.4,349
41.48,335
41.56,343
41.64,299
41.72,344
41.8,355
41.88,333
41.96,337
42.04,425
42.12,442
42.2,589
42.28,831
42.36,1558
42.44,4362
42.52,3289
42.6,2320
42.68,1168
42.76,707
42.84,583
42.92,619
43,928
43.08,1326
43.16,1300
43.24,1785
43.32,2280
43.4,1754
43.48,974
43.56,547
43.64,401
43.72,400
43.8,379
43.88,328
43.96,354
44.04,300
44.12,351
44.2,316
44.28,317
44.36,352
44.44,343
44.52,325
44.6,336
44.68,321
44.76,276
44.84,302
44.92,332
45,274
45.08,278
45.16,269
45.24,288
45.32,297
45.4,331
45.48,312
45.56,334
45.64,323
45.72,321
45.8,288
45.88,273
45.96,293
46.04,338
46.12,275
46.2,338
46.28,307
46.36,281
46.44,312
46.52,345
46.6,324
46.68,340
46.76,334
46.84,482
46.92,625
47,546
47.08,448
47.16,373
47.24,337
47.32,375
47.4,388
47.48,416
47.56,431
47.64,385
47.72,323
47.8,320
47.88,344
47.96,306
48.04,321
48.12,291
48.2,332
48.28,329
48.36,334
48.44,345
48.52,424
48.6,454
48.68,727
48.76,1835
48.84,1956
48.92,1523
49,866
49.08,450
49.16,359
49.24,376
49.32,333
49.4,309
49.48,326
49.56,356
49.64,354
49.72,316
49.8,330
49.88,358
49.96,357
50.04,368
50.12,366
50.2,401
50.28,597
50.36,491
50.44,456
50.52,375
50.6,382
50.68,341
50.76,314
50.84,422
50.92,494
51,470
51.08,393
51.16,381
51.24,362
51.32,329
51.4,327
51.48,396
51.56,360
51.64,344
51.72,362
51.8,413
51.88,586
51.96,796
52.04,779
52.12,866
52.2,866
52.28,1091
52.36,1921
52.44,1939
52.52,1800
52.6,1246
52.68,1004
52.76,848
52.84,485
52.92,415
53,381
53.08,375
53.16,359
53.24,332
53.32,341
53.4,367
53.48,332
53.56,352
53.64,331
53.72,392
53.8,464
53.88,762
53.96,1246
54.04,1056
54.12,796
54.2,485
54.28,411
54.36,353
54.44,325
54.52,342
54.6,373
54.68,371
54.76,334
54.84,349
54.92,379
55,379
55.08,393
55.16,389
55.24,382
55.32,483
55.4,623
55.48,1177
55.56,1454
55.64,1039
55.72,900
55.8,574
55.88,459
55.96,467
56.04,617
56.12,866
56.2,1125
56.28,1142
56.36,866
56.44,589
56.52,655
56.6,894
56.68,879
56.76,720
56.84,585
56.92,487
57,404
57.08,419
57.16,429
57.24,445
57.32,544
57.4,1021
57.48,2008
57.56,2008
57.64,1662
57.72,1575
57.8,1869
57.88,1506
57.96,2562
58.04,2008
58.12,1437
58.2,1212
58.28,658
58.36,455
58.44,438
58.52,460
58.6,436
58.68,487
58.76,555
58.84,984
58.92,2078
59,1924
59.08,1628
59.16,1579
59.24,1679
59.32,1600
59.4,1895
59.48,1312
59.56,1018
59.64,740
59.72,605
59.8,753
59.88,1329
59.96,1249
60.04,985
60.12,818
60.2,494
60.28,399
60.36,369
60.44,398
60.52,333
60.6,379
60.68,355
60.76,324
60.84,375
60.92,307
61,324
61.08,342
61.16,303
61.24,345
61.32,347
61.4,314
61.48,352
61.56,320
61.64,335
61.72,310
61.8,323
61.88,341
61.96,338
62.04,325
62.12,387
62.2,438
62.28,443
62.36,507
62.44,531
62.52,814
62.6,738
62.68,786
62.76,690
62.84,551
62.92,456
63,405
63.08,372
63.16,324
63.24,354
63.32,400
63.4,414
63.48,599
63.56,551
63.64,511
63.72,485
63.8,453
63.88,450
63.96,762
64.04,692
64.12,658
64.2,485
64.28,415
64.36,420
64.44,415
64.52,519
64.6,831
64.68,606
64.76,606
64.84,519
64.92,439
65,397
65.08,348
65.16,378
65.24,331
65.32,388
65.4,362
65.48,373
65.56,422
65.64,435
65.72,451
65.8,526
65.88,814
65.96,1350
66.04,2770
66.12,2562
66.2,1800
66.28,2008
66.36,1004
66.44,1194
66.52,866
66.6,743
66.68,665
66.76,490
66.84,415
66.92,394
67,437
67.08,437
67.16,636
67.24,775
67.32,575
67.4,566
67.48,497
67.56,379
67.64,329
67.72,373
67.8,372
67.88,332
67.96,333
68.04,332
68.12,348
68.2,367
68.28,379
68.36,373
68.44,390
68.52,506
68.6,579
68.68,485
68.76,494
68.84,393
68.92,322
69,367
69.08,320
69.16,369
69.24,360
69.32,397
69.4,492
69.48,534
69.56,471
69.64,475
69.72,471
69.8,374
69.88,389
69.96,418
70.04,504
70.12,654
70.2,827
70.28,784
70.36,762
70.44,657
70.52,570
70.6,448
70.68,368
70.76,356
70.84,378
70.92,374
71,338
71.08,398
71.16,381
71.24,384
71.32,388
71.4,479
71.48,699
71.56,866
71.64,1108
71.72,2250
71.8,1593
71.88,1177
71.96,1190
72.04,800
72.12,554
72.2,487
72.28,457
72.36,392
72.44,374
72.52,320
72.6,350
72.68,345
72.76,353
72.84,342
72.92,398
73,392
73.08,467
73.16,423
73.24,461
73.32,554
73.4,727
73.48,658
73.56,727
73.64,969
73.72,1039
73.8,762
73.88,779
73.96,866
74.04,1108
74.12,900
74.2,589
74.28,622
74.36,492
74.44,449
74.52,382
74.6,371
74.68,375
74.76,422
74.84,406
74.92,485
75,692
75.08,692
75.16,727
75.24,762
75.32,710
75.4,502
75.48,449
75.56,489
75.64,445
75.72,524
75.8,913
75.88,1297
75.96,946
76.04,812
76.12,832
76.2,680
76.28,678
76.36,606
76.44,511
76.52,496
76.6,500
76.68,470
76.76,727
76.84,1316
76.92,987
77,762
77.08,831
77.16,1039
77.24,1298
77.32,935
77.4,779
77.48,1091
77.56,1281
77.64,814
77.72,581
77.8,553
77.88,465
77.96,410
78.04,377
78.12,372
78.2,350
78.28,317
78.36,355
78.44,309
78.52,331
78.6,351
78.68,435
78.76,492
78.84,500
78.92,571
79,640
79.08,900
79.16,1021
79.24,1194
79.32,1056
79.4,1004
79.48,727
79.56,762
79.64,415
79.72,415
79.8,391
79.88,378
79.96,357
80.04,346
80.12,358
80.2,411
80.28,398
80.36,489
80.44,444
80.52,369
80.6,381
80.68,399
80.76,353
80.84,309
80.92,353
81,355
81.08,311
81.16,306
81.24,301
81.32,307
81.4,309
81.48,325
81.56,309
81.64,281
81.72,266
81.8,322
81.88,324
81.96,337
82.04,306
82.12,277
82.2,335
82.28,289
82.36,332
82.44,308
82.52,308
82.6,315
82.68,287
82.76,295
82.84,328
82.92,417
83,464
83.08,520
83.16,415
83.24,433
83.32,449
83.4,365
83.48,309
83.56,320
83.64,356
83.72,376
83.8,366
83.88,364
83.96,379
84.04,390
84.12,422
84.2,479
84.28,509
84.36,474
84.44,398
84.52,456
84.6,472
84.68,524
84.76,432
84.84,357
84.92,433
85,398
85.08,373
85.16,325
85.24,401
85.32,437
85.4,371
85.48,343
85.56,420
85.64,366
85.72,325
85.8,335
85.88,338
85.96,329
86.04,306
86.12,336
86.2,343
86.28,363
86.36,322
86.44,366
86.52,326
86.6,357
86.68,366
86.76,435
86.84,458
86.92,412
87,390
87.08,394
87.16,414
87.24,397
87.32,402
87.4,394
87.48,371
87.56,408
87.64,367
87.72,396
87.8,424
87.88,404
87.96,390
88.04,425
88.12,386
88.2,340
88.28,385
88.36,375
88.44,331
88.52,340
88.6,367
88.68,422
88.76,431
88.84,448
88.92,559
89,750
89.08,1010
89.16,631
89.24,565
89.32,562
89.4,539
89.48,569
89.56,625
89.64,694
89.72,605
89.8,549
89.88,559
89.96,519
90.04,431
90.12,363
90.2,400
90.28,386
90.36,431
90.44,392
90.52,349
90.6,368
90.68,407
90.76,360
90.84,322
90.92,367
91,364
91.08,324
91.16,321
91.24,314
91.32,320
91.4,322
91.48,341
91.56,327
91.64,307
91.72,314
91.8,406
91.88,409
91.96,386
92.04,350
92.12,333
92.2,382
92.28,323
92.36,363
92.44,340
92.52,348
92.6,381
92.68,415
92.76,519
92.84,727
92.92,762
93,675
93.08,519
93.16,744
93.24,831
93.32,571
93.4,415
93.48,519
93.56,571
93.64,441
93.72,358
93.8,381
93.88,384
93.96,367
94.04,451
94.12,450
94.2,480
94.28,426
94.36,455
94.44,542
94.52,599
94.6,631
94.68,570
94.76,499
94.84,490
94.92,597
95,684
95.08,694
95.16,753
95.24,638
95.32,584
95.4,560
95.48,564
95.56,570
95.64,497
95.72,417
95.8,398
95.88,433
95.96,381
96.04,401
96.12,372
96.2,340
96.28,354
96.36,392
96.44,362
96.52,386
96.6,362
96.68,386
96.76,362
96.84,356
96.92,350
97,393
97.08,340
97.16,361
97.24,351
97.32,402
97.4,413
97.48,432
97.56,416
97.64,437
97.72,486
97.8,545
97.88,663
97.96,706
98.04,553
98.12,502
98.2,555
98.28,627
98.36,489
98.44,477
98.52,468
98.6,506
98.68,593
98.76,464
98.84,433
98.92,463
99,453
99.08,463
99.16,416
99.24,362
99.32,397
99.4,361
99.48,368
99.56,341
99.64,365
99.72,419
99.8,475
99.88,483
99.96,480
100.04,456
100.12,450
100.2,549
100.28,537
100.36,558
100.44,462
100.52,442
100.6,497
100.68,500
100.76,554
100.84,554
100.92,692
101,1333
101.08,900
101.16,658
101.24,640
101.32,692
101.4,900
101.48,640
101.56,450
101.64,398
101.72,359
101.8,397
101.88,363
101.96,342
102.04,366
102.12,409
102.2,421
102.28,378
102.36,377
102.44,400
102.52,400
102.6,407
102.68,385
102.76,350
102.84,394
102.92,363
103,410
103.08,448
103.16,523
103.24,550
103.32,557
103.4,588
103.48,539
103.56,564
103.64,543
103.72,536
103.8,471
103.88,409
103.96,391
104.04,439
104.12,385
104.2,353
104.28,355
104.36,364
104.44,369
104.52,349
104.6,382
104.68,393
104.76,425
104.84,430
104.92,519
105,495
105.08,532
105.16,538
105.24,558
105.32,604
105.4,693
105.48,692
105.56,622
105.64,611
105.72,575
105.8,547
105.88,496
105.96,446
106.04,458
106.12,390
106.2,399
106.28,403
106.36,396
106.44,398
106.52,417
106.6,386
106.68,374
106.76,447
106.84,459
106.92,423
107,444
107.08,490
107.16,536
107.24,511
107.32,478
107.4,472
107.48,464
107.56,464
107.64,428
107.72,428
107.8,455
107.88,410
107.96,409
108.04,375
108.12,430
108.2,459
108.28,496
108.36,513
108.44,558
108.52,474
108.6,467
108.68,432
108.76,445
108.84,422
108.92,447
109,441
109.08,437
109.16,423
109.24,405
109.32,376
109.4,386
109.48,412
109.56,373
109.64,383
109.72,349
109.8,386
109.88,378
109.96,377
110.04,372
110.12,428
110.2,396
110.28,450
110.36,519
110.44,623
110.52,814
110.6,831
110.68,692
110.76,866
110.84,969
110.92,969
111,883
111.08,727
111.16,900
111.24,1073
111.32,831
111.4,710
111.48,796
111.56,727
111.64,900
111.72,744
111.8,692
111.88,623
111.96,625
112.04,552
112.12,503
112.2,500
112.28,492
112.36,476
112.44,448
112.52,414
112.6,386
112.68,369
112.76,412
112.84,366
112.92,383
113,380
113.08,362
113.16,368
113.24,404
113.32,385
113.4,380
113.48,465
113.56,501
113.64,469
113.72,443
113.8,414
113.88,413
113.96,424
114.04,448
114.12,423
114.2,381
114.28,355
114.36,403
114.44,398
114.52,405
114.6,379
114.68,361
114.76,435
114.84,419
114.92,500
115,488
115.08,465
115.16,448
115.24,417
115.32,436
115.4,469
115.48,502
115.56,419
115.64,413
115.72,391
115.8,416
115.88,451
115.96,453
116.04,417
116.12,493
116.2,623
116.28,727
116.36,658
116.44,623
116.52,692
116.6,589
116.68,623
116.76,589
116.84,519
116.92,555
117,523
117.08,447
117.16,455
117.24,403
117.32,474
117.4,485
117.48,692
117.56,762
117.64,692
117.72,450
117.8,381
117.88,454
117.96,513
118.04,489
118.12,530
118.2,463
118.28,439
118.36,466
118.44,460
118.52,442
118.6,446
118.68,419
118.76,365
118.84,387
118.92,419
119,366
119.08,379
119.16,376
119.24,389
119.32,383
119.4,404
119.48,385
119.56,418
119.64,430
119.72,456
119.8,446
119.88,431
119.96,424
120.02,380