File: data/xrd_icdd_PDF/00-060-0203 (PD3).csv
15,1980
15.08,1817
15.16,1768
15.24,1797
15.32,1861
15.4,1843
15.48,1805
15.56,1863
15.64,1926
15.72,1830
15.8,1811
15.88,1901
15.96,1855
16.04,1924
16.12,1943
16.2,1855
16.28,1904
16.36,1824
16.44,1922
16.52,1815
16.6,1893
16.68,1891
16.76,1865
16.84,1930
16.92,1865
17,1907
17.08,1853
17.16,1828
17.24,1903
17.32,1890
17.4,1889
17.48,1810
17.56,1976
17.64,2018
17.72,1912
17.8,1904
17.88,1848
17.96,1920
18.04,1820
18.12,1921
18.2,1858
18.28,1846
18.36,1771
18.44,1851
18.52,1804
18.6,1889
18.68,1852
18.76,1813
18.84,1867
18.92,1882
19,1822
19.08,1818
19.16,1870
19.24,1835
19.32,1812
19.4,1863
19.48,1814
19.56,1855
19.64,1771
19.72,1788
19.8,1826
19.88,1801
19.96,1792
20.04,1879
20.12,1767
20.2,1827
20.28,1738
20.36,1783
20.44,1919
20.52,1759
20.6,1812
20.68,1799
20.76,1804
20.84,1722
20.92,1801
21,1801
21.08,1801
21.16,1813
21.24,1821
21.32,1806
21.4,1847
21.48,1758
21.56,1827
21.64,1754
21.72,1800
21.8,1781
21.88,1749
21.96,1792
22.04,1809
22.12,1852
22.2,2186
22.28,2611
22.36,2369
22.44,1933
22.52,1804
22.6,1808
22.68,1762
22.76,1792
22.84,1770
22.92,1796
23,1859
23.08,1878
23.16,2236
23.24,2779
23.32,3211
23.4,2580
23.48,2077
23.56,1901
23.64,1756
23.72,1715
23.8,1781
23.88,1766
23.96,1696
24.04,1713
24.12,1704
24.2,1743
24.28,1748
24.36,1770
24.44,1742
24.52,1670
24.6,1782
24.68,1741
24.76,1734
24.84,1744
24.92,1746
25,1770
25.08,1698
25.16,1715
25.24,1725
25.32,1744
25.4,1698
25.48,1709
25.56,1675
25.64,1708
25.72,1685
25.8,1690
25.88,1723
25.96,1643
26.04,1794
26.12,1675
26.2,1760
26.28,1689
26.36,1798
26.44,1746
26.52,1863
26.6,1847
26.68,2012
26.76,2327
26.84,3101
26.92,5156
27,5528
27.08,3493
27.16,2325
27.24,1980
27.32,1941
27.4,1772
27.48,1769
27.56,1767
27.64,1730
27.72,1785
27.8,1729
27.88,1747
27.96,1699
28.04,1717
28.12,1785
28.2,1696
28.28,1672
28.36,1802
28.44,1700
28.52,1662
28.6,1731
28.68,1691
28.76,1701
28.84,1733
28.92,1713
29,1634
29.08,1726
29.16,1746
29.24,1696
29.32,1754
29.4,1700
29.48,1663
29.56,1722
29.64,1722
29.72,1713
29.8,1732
29.88,1732
29.96,1708
30.04,1675
30.12,1781
30.2,1685
30.28,1737
30.36,1685
30.44,1685
30.52,1755
30.6,1728
30.68,1692
30.76,1711
30.84,1739
30.92,1723
31,1727
31.08,1758
31.16,1671
31.24,1715
31.32,1758
31.4,1716
31.48,1728
31.56,1814
31.64,1729
31.72,1712
31.8,1761
31.88,1843
31.96,1829
32.04,1846
32.12,1838
32.2,1882
32.28,1963
32.36,2336
32.44,2802
32.52,2667
32.6,2180
32.68,1937
32.76,1808
32.84,1822
32.92,1778
33,1759
33.08,1775
33.16,1728
33.24,1791
33.32,1764
33.4,1831
33.48,1820
33.56,1884
33.64,1845
33.72,1865
33.8,1954
33.88,1854
33.96,1930
34.04,1926
34.12,1998
34.2,2060
34.28,2100
34.36,2324
34.44,3025
34.52,4971
34.6,6798
34.68,5646
34.76,3699
34.84,2684
34.92,2306
35,2282
35.08,2398
35.16,2333
35.24,2243
35.32,2303
35.4,2406
35.48,2749
35.56,3091
35.64,4051
35.72,5813
35.8,11233
35.88,24836
35.96,31682
36.04,20588
36.12,9204
36.2,5266
36.28,3863
36.36,3215
36.44,2906
36.52,2653
36.6,2551
36.68,2620
36.76,2762
36.84,2876
36.92,3369
37,4244
37.08,6708
37.16,13403
37.24,22286
37.32,18576
37.4,10805
37.48,5569
37.56,3914
37.64,3153
37.72,2829
37.8,2582
37.88,2510
37.96,2495
38.04,2536
38.12,2647
38.2,2942
38.28,3379
38.36,4716
38.44,8607
38.52,11926
38.6,9225
38.68,5480
38.76,3466
38.84,2739
38.92,2454
39,2271
39.08,2298
39.16,2143
39.24,2122
39.32,2038
39.4,2022
39.48,2015
39.56,2064
39.64,1963
39.72,2011
39.8,2053
39.88,1945
39.96,1944
40.04,1961
40.12,1960
40.2,1950
40.28,1987
40.36,1928
40.44,1891
40.52,1961
40.6,1980
40.68,1917
40.76,1912
40.84,1900
40.92,1931
41,1888
41.08,1893
41.16,1856
41.24,1978
41.32,1928
41.4,1946
41.48,1923
41.56,1884
41.64,1861
41.72,1897
41.8,1912
41.88,1958
41.96,1892
42.04,1961
42.12,1941
42.2,1960
42.28,1869
42.36,1952
42.44,2050
42.52,1943
42.6,1833
42.68,1933
42.76,1907
42.84,2050
42.92,1973
43,1966
43.08,2034
43.16,2050
43.24,2135
43.32,2277
43.4,2424
43.48,2623
43.56,3158
43.64,3976
43.72,5149
43.8,7050
43.88,8229
43.96,7149
44.04,5510
44.12,4270
44.2,3912
44.28,4626
44.36,6558
44.44,6552
44.52,5370
44.6,3916
44.68,3369
44.76,3890
44.84,5363
44.92,7563
45,6542
45.08,5024
45.16,3491
45.24,2787
45.32,2775
45.4,3063
45.48,3583
45.56,3170
45.64,2834
45.72,2317
45.8,2114
45.88,2013
45.96,1960
46.04,1944
46.12,1867
46.2,1889
46.28,1893
46.36,1788
46.44,1882
46.52,1856
46.6,1876
46.68,1897
46.76,1884
46.84,1860
46.92,1786
47,1890
47.08,1901
47.16,1972
47.24,1900
47.32,2020
47.4,2152
47.48,2598
47.56,3548
47.64,4155
47.72,3586
47.8,2929
47.88,2280
47.96,2109
48.04,1951
48.12,1913
48.2,1814
48.28,1852
48.36,1863
48.44,1866
48.52,1838
48.6,1846
48.68,1787
48.76,1778
48.84,1767
48.92,1814
49,1799
49.08,1796
49.16,1778
49.24,1836
49.32,1840
49.4,1841
49.48,1835
49.56,1817
49.64,1836
49.72,1901
49.8,1796
49.88,1811
49.96,1844
50.04,1757
50.12,1826
50.2,1745
50.28,1839
50.36,1775
50.44,1823
50.52,1781
50.6,1771
50.68,1819
50.76,1772
50.84,1772
50.92,1744
51,1706
51.08,1785
51.16,1765
51.24,1742
51.32,1715
51.4,1741
51.48,1767
51.56,1790
51.64,1712
51.72,1703
51.8,1857
51.88,1716
51.96,1842
52.04,1864
52.12,1878
52.2,2001
52.28,2090
52.36,2022
52.44,1977
52.52,1865
52.6,1885
52.68,1893
52.76,1960
52.84,1943
52.92,1935
53,1825
53.08,1833
53.16,1773
53.24,1804
53.32,1822
53.4,1751
53.48,1738
53.56,1831
53.64,1894
53.72,1793
53.8,1844
53.88,1830
53.96,1821
54.04,1837
54.12,1770
54.2,1883
54.28,1917
54.36,2005
54.44,2132
54.52,2581
54.6,3260
54.68,3231
54.76,3060
54.84,2689
54.92,2190
55,2184
55.08,2110
55.16,2237
55.24,2269
55.32,2431
55.4,2713
55.48,3620
55.56,4406
55.64,3985
55.72,3642
55.8,2905
55.88,2374
55.96,2187
56.04,2062
56.12,1969
56.2,2026
56.28,1863
56.36,1834
56.44,1851
56.52,1853
56.6,1885
56.68,1807
56.76,1841
56.84,1858
56.92,1886
57,1934
57.08,1886
57.16,1897
57.24,1959
57.32,1846
57.4,1842
57.48,1897
57.56,1905
57.64,1974
57.72,2069
57.8,2138
57.88,2510
57.96,2677
58.04,2540
58.12,2442
58.2,2207
58.28,2212
58.36,2261
58.44,2140
58.52,2206
58.6,2068
58.68,1939
58.76,2004
58.84,2012
58.92,1885
59,1917
59.08,1979
59.16,1947
59.24,1998
59.32,2130
59.4,2190
59.48,2282
59.56,2757
59.64,3413
59.72,4320
59.8,4430
59.88,4024
59.96,3463
60.04,2823
60.12,2424
60.2,2251
60.28,2131
60.36,2022
60.44,2007
60.52,1994
60.6,1945
60.68,1994
60.76,2002
60.84,2110
60.92,2251
61,2576
61.08,2614
61.16,2584
61.24,2430
61.32,2150
61.4,2047
61.48,1994
61.56,1923
61.64,1960
61.72,1943
61.8,1973
61.88,1990
61.96,1949
62.04,2017
62.12,2077
62.2,2220
62.28,2512
62.36,2985
62.44,3182
62.52,2873
62.6,2669
62.68,2418
62.76,2074
62.84,1998
62.92,1916
63,1950
63.08,1991
63.16,1977
63.24,1842
63.32,1895
63.4,1915
63.48,1940
63.56,1907
63.64,1905
63.72,1935
63.8,1891
63.88,1878
63.96,1965
64.04,1996
64.12,1993
64.2,2066
64.28,2243
64.36,2436
64.44,2857
64.52,3780
64.6,4224
64.68,3699
64.76,3641
64.84,3100
64.92,2722
65,2723
65.08,2627
65.16,2435
65.24,2383
65.32,2152
65.4,2023
65.48,1989
65.56,2003
65.64,1882
65.72,1966
65.8,1861
65.88,1851
65.96,1927
66.04,1913
66.12,1849
66.2,1911
66.28,1924
66.36,1874
66.44,1934
66.52,1907
66.6,1967
66.68,2070
66.76,2040
66.84,2234
66.92,2464
67,2881
67.08,3705
67.16,3931
67.24,3594
67.32,3237
67.4,2845
67.48,2337
67.56,2241
67.64,2108
67.72,2068
67.8,2021
67.88,1985
67.96,1997
68.04,2057
68.12,1974
68.2,1976
68.28,1935
68.36,2058
68.44,2014
68.52,1926
68.6,1952
68.68,2066
68.76,1992
68.84,1929
68.92,2031
69,1998
69.08,2054
69.16,2090
69.24,2056
69.32,2275
69.4,2397
69.48,2785
69.56,3413
69.64,4077
69.72,3999
69.8,3733
69.88,3504
69.96,2793
70.04,2451
70.12,2277
70.2,2201
70.28,2202
70.36,2090
70.44,2027
70.52,2072
70.6,1991
70.68,2060
70.76,2103
70.84,2128
70.92,2191
71,2094
71.08,2106
71.16,2064
71.24,1979
71.32,2024
71.4,2030
71.48,1985
71.56,1987
71.64,1927
71.72,1974
71.8,1988
71.88,1937
71.96,1823
72.04,1928
72.12,1977
72.2,1921
72.28,1902
72.36,1896
72.44,1949
72.52,1945
72.6,1894
72.68,1922
72.76,1888
72.84,1938
72.92,2041
73,2037
73.08,2124
73.16,2362
73.24,2678
73.32,3104
73.4,3009
73.48,2832
73.56,2725
73.64,2472
73.72,2256
73.8,2138
73.88,2104
73.96,2024
74.04,2090
74.12,2096
74.2,2070
74.28,2065
74.36,2079
74.44,2080
74.52,2115
74.6,2193
74.68,2183
74.76,2162
74.84,2154
74.92,2097
75,2205
75.08,2159
75.16,2277
75.24,2459
75.32,2671
75.4,2771
75.48,2842
75.56,2737
75.64,2660
75.72,2517
75.8,2424
75.88,2475
75.96,2565
76.04,2808
76.12,3046
76.2,3140
76.28,3110
76.36,3115
76.44,2708
76.52,2514
76.6,2307
76.68,2229
76.76,2110
76.84,1999
76.92,1991
77,1984
77.08,1966
77.16,1941
77.24,1976
77.32,1946
77.4,1835
77.48,1917
77.56,1875
77.64,1915
77.72,1909
77.8,1889
77.88,1855
77.96,1885
78.04,1921
78.12,1908
78.2,1834
78.28,1925
78.36,1995
78.44,1882
78.52,1925
78.6,1965
78.68,1995
78.76,1939
78.84,2004
78.92,1977
79,2034
79.08,2041
79.16,2122
79.24,2475
79.32,2590
79.4,2622
79.48,2574
79.56,2362
79.64,2379
79.72,2264
79.8,2099
79.88,2028
79.96,1976
80.04,1940
80.12,1938
80.2,1897
80.28,1945
80.36,1938
80.44,1903
80.52,1937
80.6,1981
80.68,1962
80.76,2003
80.84,2103
80.92,2169
81,2182
81.08,2175
81.16,2199
81.24,2213
81.32,2289
81.4,2296
81.48,2369
81.56,2626
81.64,3003
81.72,3038
81.8,2879
81.88,2826
81.96,2687
82.04,2568
82.12,2401
82.2,2401
82.28,2447
82.36,2587
82.44,2906
82.52,2869
82.6,2721
82.68,2603
82.76,2561
82.84,2340
82.92,2279
83,2132
83.08,2054
83.16,2132
83.24,2067
83.32,2032
83.4,2069
83.48,2034
83.56,2050
83.64,2016
83.72,1929
83.8,1847
83.88,1897
83.96,1847
84.04,1857
84.12,1892
84.2,1892
84.28,1804
84.36,1853
84.44,1813
84.52,1918
84.6,1808
84.68,1858
84.76,1874
84.84,1901
84.92,1825
85,1809
85.08,1841
85.16,1822
85.24,1766
85.32,1850
85.4,1802
85.48,1815
85.56,1809
85.64,1855
85.72,1859
85.8,1872
85.88,1798
85.96,1803
86.04,1824
86.12,1799
86.2,1846
86.28,1801
86.36,1793
86.44,1812
86.52,1877
86.6,1863
86.68,1820
86.76,1844
86.84,1932
86.92,1949
87,1854
87.08,1945
87.16,1965
87.24,2027
87.32,1969
87.4,1994
87.48,1980
87.56,1919
87.64,1924
87.72,1854
87.8,1883
87.88,1911
87.96,1857
88.04,1868
88.12,1872
88.2,1855
88.28,1921
88.36,1931
88.44,1928
88.52,1921
88.6,2102
88.68,2157
88.76,2122
88.84,2088
88.92,2238
89,2089
89.08,2055
89.16,1930
89.24,2014
89.32,1961
89.4,1868
89.48,1877
89.56,1901
89.64,1992
89.72,1906
89.8,1837
89.88,1923
89.96,1895
90.04,1882
90.12,1848
90.2,1958
90.28,1960
90.36,2050
90.44,1999
90.52,1846
90.6,1936
90.68,1883
90.76,1768
90.84,1859
90.92,1793
91,1922
91.08,1820
91.16,1813
91.24,1841
91.32,1837
91.4,1871
91.48,1928
91.56,1866
91.64,1885
91.72,1853
91.8,1855
91.88,1923
91.96,1864
92.04,1917
92.12,1880
92.2,1881
92.28,1867
92.36,1923
92.44,1832
92.52,1947
92.6,1884
92.68,1894
92.76,1929
92.84,1847
92.92,1931
93,1876
93.08,1833
93.16,1916
93.24,1900
93.32,1939
93.4,1874
93.48,1838
93.56,1900
93.64,1973
93.72,1935
93.8,1879
93.88,1978
93.96,1909
94.04,1880
94.12,2058
94.2,2018
94.28,1988
94.36,1930
94.44,2018
94.52,1972
94.6,1957
94.68,2123
94.76,2139
94.84,2175
94.92,2308
95,2292
95.08,2232
95.16,2086
95.24,2246
95.32,2236
95.4,2076
95.48,1991
95.56,2010
95.64,1910
95.72,1935
95.8,1903
95.88,1856
95.96,1963
96.04,1891
96.12,1936
96.2,2002
96.28,2092
96.36,1975
96.44,2094
96.52,2060
96.6,2062
96.68,2092
96.76,2065
96.84,2050
96.92,1950
97,1927
97.08,1949
97.16,1956
97.24,1973
97.32,1995
97.4,1908
97.48,1949
97.56,1929
97.64,1953
97.72,1994
97.8,2034
97.88,2017
97.96,2090
98.04,2143
98.12,2199
98.2,2291
98.28,2391
98.36,2517
98.44,2703
98.52,2794
98.6,2710
98.68,2631
98.76,2628
98.84,2497
98.92,2459
99,2225
99.08,2221
99.16,2074
99.24,2080
99.32,2052
99.4,2063
99.48,2118
99.56,2165
99.64,2252
99.72,2193
99.8,2257
99.88,2095
99.96,2198
100.04,2122
100.12,2163
100.2,2085
100.28,2047
100.36,2028
100.44,1945
100.52,1891
100.6,2070
100.68,1881
100.76,1916
100.84,1987
100.92,1921
101,1926
101.08,1964
101.16,2009
101.24,1960
101.32,2003
101.4,2018
101.48,1983
101.56,1968
101.64,2046
101.72,2022
101.8,1994
101.88,2138
101.96,2165
102.04,2268
102.12,2246
102.2,2312
102.28,2333
102.36,2289
102.44,2332
102.52,2231
102.6,2262
102.68,2130
102.76,2085
102.84,2073
102.92,1975
103,2007
103.08,1922
103.16,1947
103.24,1964
103.32,1908
103.4,2021
103.48,1999
103.56,1869
103.64,1903
103.72,1926
103.8,1864
103.88,1959
103.96,2021
104.04,1822
104.12,1926
104.2,1858
104.28,1952
104.36,1888
104.44,1969
104.52,1932
104.6,2003
104.68,2047
104.76,2072
104.84,2117
104.92,2203
105,2053
105.08,1990
105.16,2076
105.24,1982
105.32,2037
105.4,2064
105.48,1984
105.56,1868
105.64,1958
105.72,2031
105.8,2035
105.88,2097
105.96,2153
106.04,2179
106.12,2230
106.2,2111
106.28,2123
106.36,2106
106.44,2210
106.52,2121
106.6,2059
106.64,2096