File: data/xrd_icdd_PDF/00-071-0760 (PD3).csv
10,423
10.05709,388
10.11418,401
10.17127,444
10.22836,415
10.28546,402
10.34255,411
10.39964,441
10.45673,424
10.51382,424
10.57091,429
10.628,411
10.68509,404
10.74219,447
10.79928,424
10.85637,410
10.91346,403
10.97055,413
11.02764,424
11.08473,395
11.14182,388
11.19892,403
11.25601,396
11.3131,445
11.37019,416
11.42728,446
11.48437,425
11.54146,397
11.59855,403
11.65564,402
11.71274,387
11.76983,407
11.82692,393
11.88401,425
11.9411,422
11.99819,419
12.05528,374
12.11237,405
12.16947,446
12.22656,449
12.28365,426
12.34074,426
12.39783,415
12.45492,413
12.51201,412
12.5691,411
12.6262,417
12.68329,415
12.74038,436
12.79747,394
12.85456,397
12.91165,396
12.96874,384
13.02583,413
13.08292,387
13.14002,419
13.19711,406
13.2542,438
13.31129,405
13.36838,467
13.42547,460
13.48256,477
13.53965,432
13.59675,412
13.65384,467
13.71093,395
13.76802,422
13.82511,410
13.8822,406
13.93929,438
13.99638,439
14.05348,408
14.11057,430
14.16766,406
14.22475,416
14.28184,404
14.33893,451
14.39602,387
14.45311,416
14.5102,427
14.5673,431
14.62439,419
14.68148,417
14.73857,426
14.79566,443
14.85275,409
14.90984,406
14.96693,398
15.02403,401
15.08112,406
15.13821,393
15.1953,447
15.25239,409
15.30948,432
15.36657,434
15.42366,461
15.48076,581
15.53785,468
15.59494,442
15.65203,412
15.70912,431
15.76621,433
15.8233,448
15.88039,447
15.93748,401
15.99458,436
16.05167,415
16.10876,398
16.16585,422
16.22294,471
16.28003,445
16.33712,441
16.39421,392
16.45131,415
16.5084,422
16.56549,464
16.62258,434
16.67967,434
16.73676,422
16.79385,441
16.85094,422
16.90804,408
16.96513,429
17.02222,393
17.07931,441
17.1364,411
17.19349,398
17.25058,433
17.30767,427
17.36476,415
17.42186,439
17.47895,393
17.53604,409
17.59313,456
17.65022,433
17.70731,414
17.7644,435
17.82149,424
17.87859,457
17.93568,413
17.99277,421
18.04986,470
18.10695,435
18.16404,443
18.22113,439
18.27822,466
18.33532,472
18.39241,444
18.4495,459
18.50659,456
18.56368,450
18.62077,448
18.67786,411
18.73495,408
18.79204,457
18.84914,440
18.90623,403
18.96332,423
19.02041,401
19.0775,440
19.13459,418
19.19168,425
19.24877,429
19.30587,436
19.36296,478
19.42005,455
19.47714,422
19.53423,416
19.59132,429
19.64841,439
19.7055,418
19.7626,418
19.81969,422
19.87678,463
19.93387,473
19.99096,438
20.04805,479
20.10514,481
20.16223,410
20.21932,472
20.27642,479
20.33351,419
20.3906,450
20.44769,450
20.50478,466
20.56187,411
20.61896,459
20.67605,482
20.73315,406
20.79024,474
20.84733,452
20.90442,435
20.96151,483
21.0186,454
21.07569,479
21.13278,415
21.18988,457
21.24697,449
21.30406,437
21.36115,470
21.41824,461
21.47533,447
21.53242,468
21.58951,404
21.6466,433
21.7037,456
21.76079,471
21.81788,438
21.87497,513
21.93206,434
21.98915,466
22.04624,440
22.10333,468
22.16043,470
22.21752,474
22.27461,426
22.3317,449
22.38879,460
22.44588,441
22.50297,480
22.56006,467
22.61716,442
22.67425,437
22.73134,427
22.78843,468
22.84552,481
22.90261,460
22.9597,465
23.01679,486
23.07388,397
23.13098,464
23.18807,441
23.24516,441
23.30225,488
23.35934,437
23.41643,473
23.47352,458
23.53061,429
23.58771,456
23.6448,467
23.70189,456
23.75898,457
23.81607,473
23.87316,473
23.93025,453
23.98734,471
24.04444,442
24.10153,437
24.15862,473
24.21571,469
24.2728,473
24.32989,467
24.38698,479
24.44407,441
24.50116,485
24.55826,477
24.61535,428
24.67244,456
24.72953,470
24.78662,479
24.84371,477
24.9008,466
24.95789,450
25.01499,433
25.07208,483
25.12917,440
25.18626,451
25.24335,442
25.30044,481
25.35753,437
25.41462,449
25.47172,454
25.52881,449
25.5859,426
25.64299,454
25.70008,476
25.75717,453
25.81426,462
25.87135,459
25.92844,460
25.98554,450
26.04263,442
26.09972,454
26.15681,499
26.2139,459
26.27099,485
26.32808,415
26.38517,446
26.44227,452
26.49936,451
26.55645,460
26.61354,473
26.67063,467
26.72772,476
26.78481,468
26.8419,446
26.899,461
26.95609,455
27.01318,465
27.07027,470
27.12736,503
27.18445,473
27.24154,427
27.29863,440
27.35572,453
27.41282,425
27.46991,469
27.527,464
27.58409,479
27.64118,483
27.69827,411
27.75536,496
27.81245,427
27.86955,475
27.92664,421
27.98373,487
28.04082,478
28.09791,439
28.155,486
28.21209,470
28.26918,479
28.32628,458
28.38337,489
28.44046,463
28.49755,496
28.55464,448
28.61173,489
28.66882,454
28.72591,484
28.783,475
28.8401,479
28.89719,477
28.95428,488
29.01137,439
29.06846,458
29.12555,471
29.18264,548
29.23973,425
29.29683,470
29.35392,449
29.41101,479
29.4681,475
29.52519,515
29.58228,463
29.63937,465
29.69646,517
29.75356,547
29.81065,486
29.86774,484
29.92483,512
29.98192,492
30.03901,538
30.0961,570
30.15319,555
30.21028,521
30.26738,459
30.32447,483
30.38156,535
30.43865,471
30.49574,493
30.55283,520
30.60992,505
30.66701,480
30.72411,514
30.7812,498
30.83829,481
30.89538,505
30.95247,512
31.00956,578
31.06665,616
31.12374,624
31.18084,1008
31.23793,2171
31.29502,1531
31.35211,854
31.4092,627
31.46629,548
31.52338,558
31.58047,494
31.63756,498
31.69466,528
31.75175,488
31.80884,515
31.86593,485
31.92302,509
31.98011,533
32.0372,482
32.09429,503
32.15139,520
32.20848,482
32.26557,484
32.32266,474
32.37975,512
32.43684,511
32.49393,518
32.55102,540
32.60812,461
32.66521,502
32.7223,517
32.77939,469
32.83648,473
32.89357,482
32.95066,446
33.00775,480
33.06484,483
33.12194,422
33.17903,483
33.23612,463
33.29321,495
33.3503,473
33.40739,499
33.46448,480
33.52157,504
33.57867,484
33.63576,484
33.69285,521
33.74994,487
33.80703,524
33.86412,493
33.92121,466
33.9783,506
34.0354,472
34.09249,491
34.14958,517
34.20667,526
34.26376,551
34.32085,589
34.37794,624
34.43503,686
34.49212,835
34.54922,743
34.60631,702
34.6634,578
34.72049,583
34.77758,522
34.83467,544
34.89176,585
34.94885,610
35.00595,543
35.06304,582
35.12013,556
35.17722,631
35.23431,682
35.2914,690
35.34849,760
35.40558,1037
35.46268,1225
35.51977,1429
35.57686,1843
35.63395,3363
35.69104,6732
35.74813,4524
35.80522,3416
35.86231,1670
35.9194,1100
35.9765,849
36.03359,667
36.09068,656
36.14777,636
36.20486,540
36.26195,627
36.31904,555
36.37613,619
36.43323,548
36.49032,560
36.54741,553
36.6045,564
36.66159,516
36.71868,524
36.77577,523
36.83286,504
36.88996,514
36.94705,523
37.00414,535
37.06123,539
37.11832,511
37.17541,540
37.2325,509
37.28959,495
37.34668,514
37.40378,503
37.46087,528
37.51796,487
37.57505,458
37.63214,525
37.68923,476
37.74632,552
37.80341,502
37.86051,495
37.9176,498
37.97469,526
38.03178,516
38.08887,478
38.14596,457
38.20305,477
38.26014,498
38.31724,512
38.37433,494
38.43142,473
38.48851,485
38.5456,506
38.60269,478
38.65978,549
38.71687,479
38.77396,528
38.83106,506
38.88815,537
38.94524,509
39.00233,513
39.05942,535
39.11651,541
39.1736,506
39.23069,514
39.28779,469
39.34488,495
39.40197,484
39.45906,518
39.51615,507
39.57324,475
39.63033,537
39.68742,535
39.74452,491
39.80161,556
39.8587,534
39.91579,594
39.97288,627
40.02997,688
40.08706,784
40.14415,1061
40.20124,1248
40.25834,1107
40.31543,1034
40.37252,735
40.42961,657
40.4867,608
40.54379,566
40.60088,596
40.65797,488
40.71507,534
40.77216,512
40.82925,491
40.88634,551
40.94343,549
41.00052,472
41.05761,477
41.1147,490
41.1718,484
41.22889,491
41.28598,507
41.34307,484
41.40016,507
41.45725,500
41.51434,453
41.57143,476
41.62852,481
41.68562,470
41.74271,498
41.7998,483
41.85689,471
41.91398,506
41.97107,475
42.02816,483
42.08525,489
42.14235,479
42.19944,478
42.25653,474
42.31362,491
42.37071,487
42.4278,506
42.48489,482
42.54198,505
42.59908,499
42.65617,448
42.71326,492
42.77035,483
42.82744,474
42.88453,455
42.94162,520
42.99871,516
43.0558,524
43.1129,568
43.16999,524
43.22708,544
43.28417,530
43.34126,538
43.39835,548
43.45544,566
43.51253,562
43.56963,505
43.62672,488
43.68381,489
43.7409,476
43.79799,478
43.85508,496
43.91217,504
43.96926,468
44.02636,469
44.08345,480
44.14054,462
44.19763,457
44.25472,498
44.31181,494
44.3689,488
44.42599,450
44.48308,457
44.54018,448
44.59727,509
44.65436,525
44.71145,442
44.76854,495
44.82563,448
44.88272,453
44.93981,500
44.99691,489
45.054,480
45.11109,504
45.16818,452
45.22527,454
45.28236,507
45.33945,454
45.39654,463
45.45364,483
45.51073,470
45.56782,455
45.62491,482
45.682,482
45.73909,457
45.79618,497
45.85327,472
45.91036,493
45.96746,482
46.02455,515
46.08164,495
46.13873,457
46.19582,462
46.25291,485
46.31,493
46.36709,450
46.42419,483
46.48128,484
46.53837,496
46.59546,482
46.65255,453
46.70964,469
46.76673,457
46.82382,451
46.88092,469
46.93801,482
46.9951,487
47.05219,486
47.10928,483
47.16637,456
47.22346,497
47.28055,497
47.33764,529
47.39474,450
47.45183,452
47.50892,499
47.56601,486
47.6231,546
47.68019,547
47.73728,510
47.79437,484
47.85147,495
47.90856,468
47.96565,483
48.02274,455
48.07983,445
48.13692,492
48.19401,438
48.2511,501
48.3082,433
48.36529,458
48.42238,462
48.47947,458
48.53656,496
48.59365,442
48.65074,464
48.70783,509
48.76492,460
48.82202,442
48.87911,452
48.9362,443
48.99329,463
49.05038,452
49.10747,490
49.16456,476
49.22165,460
49.27875,494
49.33584,480
49.39293,483
49.45002,485
49.50711,475
49.5642,474
49.62129,441
49.67838,464
49.73548,423
49.79257,506
49.84966,488
49.90675,494
49.96384,481
50.02093,477
50.07802,450
50.13511,456
50.1922,457
50.2493,491
50.30639,459
50.36348,476
50.42057,449
50.47766,459
50.53475,485
50.59184,483
50.64893,453
50.70603,421
50.76312,494
50.82021,467
50.8773,471
50.93439,457
50.99148,506
51.04857,463
51.10566,490
51.16276,446
51.21985,467
51.27694,478
51.33403,429
51.39112,449
51.44821,456
51.5053,464
51.56239,468
51.61948,467
51.67658,506
51.73367,461
51.79076,446
51.84785,440
51.90494,484
51.96203,495
52.01912,470
52.07621,484
52.13331,490
52.1904,467
52.24749,433
52.30458,468
52.36167,486
52.41876,476
52.47585,493
52.53294,483
52.59004,429
52.64713,518
52.70422,453
52.76131,456
52.8184,471
52.87549,457
52.93258,506
52.98967,489
53.04676,478
53.10386,497
53.16095,465
53.21804,500
53.27513,468
53.33222,436
53.38931,516
53.4464,486
53.50349,510
53.56059,468
53.61768,466
53.67477,485
53.73186,503
53.78895,448
53.84604,464
53.90313,480
53.96022,446
54.01732,463
54.07441,489
54.1315,494
54.18859,473
54.24568,512
54.30277,472
54.35986,458
54.41695,539
54.47404,474
54.53114,464
54.58823,526
54.64532,483
54.70241,569
54.7595,524
54.81659,561
54.87368,545
54.93077,560
54.98787,618
55.04496,687
55.10205,736
55.15914,917
55.21623,993
55.27332,983
55.33041,902
55.3875,776
55.4446,742
55.50169,627
55.55878,552
55.61587,516
55.67296,498
55.73005,541
55.78714,504
55.84423,463
55.90132,557
55.95842,479
56.01551,452
56.0726,475
56.12969,503
56.18678,493
56.24387,496
56.30096,484
56.35805,505
56.41515,454
56.47224,513
56.52933,520
56.58642,467
56.64351,467
56.7006,489
56.75769,473
56.81478,516
56.87188,504
56.92897,552
56.98606,539
57.04315,570
57.10024,556
57.15733,562
57.21442,514
57.27151,479
57.3286,485
57.3857,492
57.44279,468
57.49988,486
57.55697,471
57.61406,465
57.67115,461
57.72824,424
57.78533,494
57.84243,460
57.89952,452
57.95661,459
58.0137,474
58.07079,458
58.12788,490
58.18497,432
58.24206,469
58.29916,485
58.35625,461
58.41334,468
58.47043,487
58.52752,476
58.58461,462
58.6417,451
58.69879,427
58.75588,460
58.81298,484
58.87007,455
58.92716,479
58.98425,445
59.04134,446
59.09843,499
59.15552,471
59.21261,461
59.26971,486
59.3268,482
59.38389,509
59.44098,514
59.49807,518
59.55516,476
59.61225,467
59.66934,434
59.72644,486
59.78353,480
59.84062,491
59.89771,491
59.9548,499
60.01189,456
60.06898,470
60.12607,467
60.18316,429
60.24026,483
60.29735,474
60.35444,457
60.41153,466
60.46862,484
60.52571,496
60.5828,542
60.63989,503
60.69699,536
60.75408,537
60.81117,626
60.86826,682
60.92535,799
60.98244,1001
61.03953,995
61.09662,845
61.15372,894
61.21081,771
61.2679,616
61.32499,621
61.38208,528
61.43917,556
61.49626,524
61.55335,498
61.61044,496
61.66754,448
61.72463,512
61.78172,534
61.83881,466
61.8959,485
61.95299,460
62.01008,516
62.06717,477
62.12427,497
62.18136,498
62.23845,520
62.29554,458
62.35263,488
62.40972,488
62.46681,540
62.5239,510
62.581,531
62.63809,540
62.69518,555
62.75227,546
62.80936,514
62.86645,479
62.92354,533
62.98063,501
63.03772,490
63.09482,462
63.15191,470
63.209,465
63.26609,490
63.32318,515
63.38027,504
63.43736,478
63.49445,490
63.55155,486
63.60864,487
63.66573,521
63.72282,495
63.77991,485
63.837,475
63.89409,503
63.95118,515
64.00828,503
64.06537,477
64.12246,491
64.17955,471
64.23664,477
64.29373,490
64.35082,510
64.40791,514
64.465,543
64.5221,546
64.57919,578
64.63628,563
64.69337,623
64.75046,683
64.80755,770
64.86464,746
64.92173,693
64.97883,672
65.03592,647
65.09301,637
65.1501,743
65.20719,575
65.26428,563
65.32137,580
65.37846,562
65.43556,522
65.49265,519
65.54974,464
65.60683,486
65.66392,525
65.72101,467
65.7781,463
65.83519,469
65.89228,439
65.94938,441
66.00647,476
66.06356,497
66.12065,443
66.17774,438
66.23483,477
66.29192,477
66.34901,498
66.40611,430
66.4632,480
66.52029,501
66.57738,496
66.63447,486
66.69156,421
66.74865,431
66.80574,504
66.86284,482
66.91993,468
66.97702,462
67.03411,472
67.0912,459
67.14829,474
67.20538,496
67.26247,438
67.31956,499
67.37666,457
67.43375,483
67.49084,473
67.54793,460
67.60502,486
67.66211,462
67.7192,475
67.77629,499
67.83339,463
67.89048,474
67.94757,460
68.00466,429
68.06175,499
68.11884,468
68.17593,478
68.23302,466
68.29012,526
68.34721,481
68.4043,460
68.46139,502
68.51848,463
68.57557,522
68.63266,451
68.68975,483
68.74684,473
68.80394,447
68.86103,472
68.91812,429
68.97521,471
69.0323,483
69.08939,471
69.14648,474
69.20357,455
69.26067,442
69.31776,457
69.37485,469
69.43194,473
69.48903,432
69.54612,463
69.60321,518
69.6603,492
69.7174,533
69.77449,503
69.83158,511
69.88867,510
69.94576,558
70.00285,573
70.05994,593
70.11703,657
70.17412,644
70.23122,667
70.28831,626
70.3454,613
70.40249,554
70.45958,550
70.51667,532
70.57376,496
70.63085,520
70.68795,451
70.74504,495
70.80213,482
70.85922,458
70.91631,479
70.9734,498
71.03049,502
71.08758,454
71.14468,486
71.20177,510
71.25886,468
71.31595,463
71.37304,473
71.43013,489
71.48722,496
71.54431,462
71.6014,488
71.6585,461
71.71559,484
71.77268,479
71.82977,500
71.88686,481
71.94395,476
72.00104,450
72.05813,464
72.11523,462
72.17232,481
72.22941,456
72.2865,496
72.34359,495
72.40068,522
72.45777,507
72.51486,558
72.57196,566
72.62905,505
72.68614,575
72.74323,579
72.80032,605
72.85741,563
72.9145,583
72.97159,543
73.02868,543
73.08578,500
73.14287,485
73.19996,498
73.25705,501
73.31414,478
73.37123,468
73.42832,474
73.48541,497
73.54251,464
73.5996,452
73.65669,474
73.71378,466
73.77087,475
73.82796,499
73.88505,448
73.94214,470
73.99924,475
74.05633,465
74.11342,468
74.17051,480
74.2276,511
74.28469,444
74.34178,461
74.39887,491
74.45596,418
74.51306,482
74.57015,478
74.62724,451
74.68433,443
74.74142,481
74.79851,471
74.8556,479
74.91269,465
74.96979,463
75.02688,452
75.08397,437
75.14106,456
75.19815,506
75.25524,454
75.31233,494
75.36942,503
75.42652,521
75.48361,503
75.5407,554
75.59779,611
75.65488,542
75.71197,573
75.76906,523
75.82615,524
75.88324,534
75.94034,498
75.99743,457
76.05452,462
76.11161,474
76.1687,467
76.22579,471
76.28288,489
76.33997,405
76.39707,460
76.45416,474
76.51125,468
76.56834,451
76.62543,430
76.68252,443
76.73961,460
76.7967,428
76.8538,482
76.91089,466
76.96798,469
77.02507,478
77.08216,432
77.13925,437
77.19634,474
77.25343,461
77.31052,487
77.36762,481
77.42471,506
77.4818,448
77.53889,459
77.59598,492
77.65307,480
77.71016,461
77.76725,467
77.82435,470
77.88144,473
77.93853,447
77.99562,481
78.05271,470
78.1098,470
78.16689,444
78.22398,490
78.28108,468
78.33817,492
78.39526,463
78.45235,429
78.50944,492
78.56653,485
78.62362,430
78.68071,441
78.7378,436
78.7949,396
78.85199,460
78.90908,430
78.96617,445
79.02326,470
79.08035,479
79.13744,486
79.19453,477
79.25163,475
79.30872,473
79.36581,461
79.4229,468
79.47999,434
79.53708,450
79.59417,451
79.65126,451
79.70836,462
79.76545,464
79.82254,431
79.87963,486
79.93672,458
79.99381,484
80.0509,463
80.10799,438
80.16508,480
80.22218,477
80.27927,461
80.33636,455
80.39345,460
80.45054,452
80.50763,444
80.56472,471
80.62181,463
80.67891,449
80.736,425
80.79309,458
80.85018,411
80.90727,442
80.96436,505
81.02145,466
81.07854,482
81.13564,477
81.19273,488
81.24982,483
81.30691,483
81.364,479
81.42109,454
81.47818,450
81.53527,464
81.59236,466
81.64946,439
81.70655,483
81.76364,450
81.82073,484
81.87782,456
81.93491,468
81.992,452
82.04909,476
82.10619,473
82.16328,473
82.22037,441
82.27746,497
82.33455,451
82.39164,415
82.44873,423
82.50582,467
82.56292,439
82.62001,485
82.6771,446
82.73419,478
82.79128,424
82.84837,452
82.90546,466
82.96255,458
83.01964,461
83.07674,435
83.13383,446
83.19092,468
83.24801,429
83.3051,473
83.36219,501
83.41928,471
83.47637,450
83.53347,489
83.59056,472
83.64765,475
83.70474,458
83.76183,499
83.81892,496
83.87601,453
83.9331,484
83.9902,444
84.04729,463
84.10438,476
84.16147,518
84.21856,444
84.27565,443
84.33274,480
84.38983,466
84.44692,464
84.50402,477
84.56111,444
84.6182,437
84.67529,460
84.73238,456
84.78947,448
84.84656,480
84.90365,463
84.96075,460
85.01784,482
85.07493,500
85.13202,485
85.18911,474
85.2462,439
85.30329,453
85.36038,471
85.41748,519
85.47457,482
85.53166,429
85.58875,451
85.64584,478
85.70293,475
85.76002,477
85.81711,466
85.8742,512
85.9313,506
85.98839,447
86.04548,462
86.10257,499
86.15966,459
86.21675,511
86.27384,488
86.33093,478
86.38803,466
86.44512,465
86.50221,502
86.5593,518
86.61639,521
86.67348,536
86.73057,519
86.78766,522
86.84476,518
86.90185,557
86.95894,535
87.01603,496
87.07312,539
87.13021,498
87.1873,473
87.24439,466
87.30148,484
87.35858,451
87.41567,497
87.47276,504
87.52985,457
87.58694,489
87.64403,530
87.70112,487
87.75821,531
87.81531,490
87.8724,552
87.92949,484
87.98658,530
88.04367,467
88.10076,444
88.15785,454
88.21494,506
88.27204,427
88.32913,504
88.38622,457
88.44331,485
88.5004,486
88.55749,446
88.61458,445
88.67167,477
88.72876,438
88.78586,485
88.84295,457
88.90004,442
88.95713,502
89.01422,423
89.07131,454
89.1284,485
89.18549,465
89.24259,472
89.29968,465
89.35677,443
89.41386,491
89.47095,458
89.52804,468
89.58513,459
89.64222,458
89.69932,483
89.75641,439
89.8135,469
89.87059,469
89.92768,481
89.98477,451
90.0038,443