File: data/xrd_icdd_PDF/00-063-0401 (PD3).csv
5,1215
5.08,1116
5.16,1040
5.24,1058
5.32,1014
5.4,989
5.48,1046
5.56,1044
5.64,926
5.72,975
5.8,875
5.88,940
5.96,906
6.04,827
6.12,841
6.2,836
6.28,901
6.36,813
6.44,857
6.52,788
6.6,716
6.68,762
6.76,774
6.84,792
6.92,760
7,758
7.08,737
7.16,737
7.24,681
7.32,772
7.4,707
7.48,707
7.56,658
7.64,691
7.72,596
7.8,575
7.88,640
7.96,538
8.04,635
8.12,642
8.2,598
8.28,591
8.36,649
8.44,538
8.52,561
8.6,617
8.68,550
8.76,545
8.84,594
8.92,536
9,534
9.08,552
9.16,487
9.24,494
9.32,511
9.4,499
9.48,416
9.56,441
9.64,476
9.72,430
9.8,430
9.88,474
9.96,434
10.04,450
10.12,453
10.2,462
10.28,453
10.36,464
10.44,499
10.52,464
10.6,432
10.68,450
10.76,420
10.84,437
10.92,409
11,434
11.08,400
11.16,433
11.24,420
11.32,416
11.4,437
11.48,395
11.56,386
11.64,463
11.72,416
11.8,407
11.88,365
11.96,421
12.04,391
12.12,360
12.2,344
12.28,340
12.36,379
12.44,390
12.52,333
12.6,390
12.68,360
12.76,321
12.84,347
12.92,307
13,372
13.08,312
13.16,342
13.24,337
13.32,286
13.4,310
13.48,353
13.56,314
13.64,349
13.72,367
13.8,342
13.88,284
13.96,342
14.04,312
14.12,275
14.2,282
14.28,305
14.36,347
14.44,266
14.52,256
14.6,259
14.68,303
14.76,273
14.84,330
14.92,275
15,249
15.08,280
15.16,316
15.24,310
15.32,307
15.4,256
15.48,296
15.56,247
15.64,293
15.72,291
15.8,286
15.88,243
15.96,323
16.04,293
16.12,252
16.2,298
16.28,245
16.36,300
16.44,249
16.52,275
16.6,280
16.68,231
16.76,254
16.84,252
16.92,268
17,270
17.08,273
17.16,289
17.24,319
17.32,268
17.4,266
17.48,286
17.56,270
17.64,256
17.72,296
17.8,222
17.88,245
17.96,231
18.04,210
18.12,215
18.2,259
18.28,254
18.36,245
18.44,206
18.52,213
18.6,256
18.68,238
18.76,222
18.84,270
18.92,254
19,236
19.08,245
19.16,236
19.24,252
19.32,222
19.4,243
19.48,256
19.56,231
19.64,201
19.72,208
19.8,217
19.88,215
19.96,259
20.04,240
20.12,222
20.2,213
20.28,224
20.36,254
20.44,233
20.52,238
20.6,229
20.68,240
20.76,178
20.84,224
20.92,178
21,249
21.08,194
21.16,208
21.24,231
21.32,208
21.4,219
21.48,238
21.56,224
21.64,206
21.72,206
21.8,245
21.88,210
21.96,196
22.04,206
22.12,217
22.2,203
22.28,203
22.36,176
22.44,192
22.52,203
22.6,213
22.68,222
22.76,164
22.84,203
22.92,208
23,196
23.08,215
23.16,192
23.24,176
23.32,199
23.4,208
23.48,173
23.56,199
23.64,219
23.72,213
23.8,199
23.88,247
23.96,192
24.04,194
24.12,199
24.2,231
24.28,226
24.36,210
24.44,273
24.52,356
24.6,370
24.68,612
24.76,949
24.84,802
24.92,501
25,280
25.08,196
25.16,229
25.24,208
25.32,203
25.4,217
25.48,233
25.56,201
25.64,189
25.72,210
25.8,192
25.88,219
25.96,231
26.04,213
26.12,192
26.2,238
26.28,196
26.36,229
26.44,217
26.52,182
26.6,215
26.68,259
26.76,194
26.84,219
26.92,203
27,240
27.08,219
27.16,249
27.24,284
27.32,275
27.4,314
27.48,337
27.56,441
27.64,700
27.72,1190
27.8,1804
27.88,1578
27.96,1036
28.04,685
28.12,418
28.2,337
28.28,287
28.36,265
28.44,227
28.52,205
28.6,191
28.68,202
28.76,232
28.84,257
28.92,322
29,258
29.08,191
29.16,267
29.24,201
29.32,202
29.4,246
29.48,303
29.56,423
29.64,617
29.72,903
29.8,1444
29.88,1887
29.96,1298
30.04,649
30.12,393
30.2,273
30.28,284
30.36,286
30.44,291
30.52,298
30.6,286
30.68,296
30.76,286
30.84,333
30.92,340
31,418
31.08,490
31.16,610
31.24,809
31.32,841
31.4,730
31.48,584
31.56,430
31.64,365
31.72,351
31.8,282
31.88,360
31.96,333
32.04,400
32.12,441
32.2,684
32.28,654
32.36,621
32.44,608
32.52,497
32.6,345
32.68,372
32.76,485
32.84,655
32.92,770
33,717
33.08,591
33.16,573
33.24,680
33.32,975
33.4,1662
33.48,2153
33.56,2044
33.64,1438
33.72,893
33.8,585
33.88,448
33.96,434
34.04,344
34.12,383
34.2,450
34.28,471
34.36,534
34.44,795
34.52,1088
34.6,1229
34.68,1051
34.76,1116
34.84,1303
34.92,1943
35,3165
35.08,5246
35.16,8508
35.24,12352
35.32,13578
35.4,8510
35.48,4292
35.56,2352
35.64,1409
35.72,982
35.8,785
35.88,804
35.96,704
36.04,745
36.12,909
36.2,1032
36.28,916
36.36,701
36.44,534
36.52,442
36.6,393
36.68,337
36.76,268
36.84,330
36.92,326
37,365
37.08,363
37.16,478
37.24,644
37.32,922
37.4,1243
37.48,1756
37.56,1756
37.64,1236
37.72,774
37.8,802
37.88,1504
37.96,2116
38.04,2368
38.12,1559
38.2,1167
38.28,1391
38.36,2594
38.44,4881
38.52,4883
38.6,2527
38.68,1046
38.76,775
38.84,679
38.92,678
39,751
39.08,791
39.16,639
39.24,485
39.32,394
39.4,340
39.48,320
39.56,263
39.64,280
39.72,215
39.8,215
39.88,185
39.96,215
40.04,217
40.12,192
40.2,224
40.28,224
40.36,224
40.44,240
40.52,226
40.6,222
40.68,180
40.76,263
40.84,296
40.92,296
41,404
41.08,545
41.16,624
41.24,543
41.32,360
41.4,293
41.48,259
41.56,224
41.64,226
41.72,217
41.8,252
41.88,321
41.96,340
42.04,444
42.12,490
42.2,383
42.28,307
42.36,273
42.44,252
42.52,249
42.6,240
42.68,266
42.76,263
42.84,349
42.92,573
43,568
43.08,446
43.16,330
43.24,240
43.32,224
43.4,210
43.48,266
43.56,310
43.64,215
43.72,224
43.8,259
43.88,213
43.96,252
44.04,206
44.12,247
44.2,326
44.28,353
44.36,296
44.44,307
44.52,217
44.6,196
44.68,182
44.76,226
44.84,180
44.92,229
45,182
45.08,215
45.16,203
45.24,224
45.32,247
45.4,247
45.48,217
45.56,215
45.64,210
45.72,298
45.8,407
45.88,418
45.96,441
46.04,430
46.12,310
46.2,323
46.28,236
46.36,280
46.44,254
46.52,277
46.6,360
46.68,400
46.76,282
46.84,293
46.92,280
47,233
47.08,224
47.16,210
47.24,206
47.32,236
47.4,219
47.48,199
47.56,213
47.64,229
47.72,187
47.8,226
47.88,233
47.96,189
48.04,252
48.12,247
48.2,240
48.28,194
48.36,263
48.44,413
48.52,365
48.6,409
48.68,305
48.76,280
48.84,252
48.92,307
49,316
49.08,367
49.16,404
49.24,388
49.32,513
49.4,471
49.48,439
49.56,358
49.64,347
49.72,296
49.8,365
49.88,372
49.96,462
50.04,534
50.12,554
50.2,573
50.28,605
50.36,658
50.44,778
50.52,1086
50.6,1663
50.68,2513
50.76,2636
50.84,2010
50.92,1404
51,781
51.08,543
51.16,367
51.24,356
51.32,453
51.4,554
51.48,684
51.56,485
51.64,469
51.72,335
51.8,266
51.88,201
51.96,263
52.04,206
52.12,286
52.2,337
52.28,434
52.36,434
52.44,381
52.52,347
52.6,256
52.68,261
52.76,319
52.84,247
52.92,226
53,208
53.08,222
53.16,171
53.24,273
53.32,289
53.4,277
53.48,411
53.56,534
53.64,591
53.72,596
53.8,427
53.88,360
53.96,293
54.04,259
54.12,246
54.2,246
54.28,233
54.36,229
54.44,224
54.52,232
54.6,239
54.68,229
54.76,298
54.84,263
54.92,220
55,310
55.08,298
55.16,268
55.24,291
55.32,298
55.4,367
55.48,439
55.56,672
55.64,684
55.72,753
55.8,721
55.88,785
55.96,672
56.04,520
56.12,425
56.2,395
56.28,319
56.36,319
56.44,390
56.52,485
56.6,705
56.68,723
56.76,640
56.84,538
56.92,404
57,448
57.08,543
57.16,936
57.24,1326
57.32,1284
57.4,1030
57.48,806
57.56,499
57.64,411
57.72,425
57.8,471
57.88,407
57.96,314
58.04,358
58.12,298
58.2,298
58.28,224
58.36,310
58.44,377
58.52,416
58.6,520
58.68,490
58.76,471
58.84,441
58.92,374
59,474
59.08,541
59.16,511
59.24,460
59.32,437
59.4,379
59.48,367
59.56,476
59.64,612
59.72,852
59.8,866
59.88,954
59.96,686
60.04,663
60.12,455
60.2,303
60.28,303
60.36,344
60.44,289
60.52,303
60.6,291
60.68,243
60.76,275
60.84,296
60.92,284
61,275
61.08,310
61.16,344
61.24,365
61.32,397
61.4,372
61.48,360
61.56,402
61.64,478
61.72,494
61.8,418
61.88,423
61.96,446
62.04,367
62.12,319
62.2,337
62.28,358
62.36,335
62.44,390
62.52,439
62.6,621
62.68,575
62.76,753
62.84,813
62.92,700
63,871
63.08,1019
63.16,1183
63.24,1141
63.32,832
63.4,742
63.48,552
63.56,474
63.64,464
63.72,469
63.8,427
63.88,388
63.96,393
64.04,319
64.12,372
64.2,386
64.28,404
64.36,531
64.44,531
64.52,755
64.6,954
64.68,892
64.76,882
64.84,744
64.92,675
65,644
65.08,568
65.16,492
65.24,469
65.32,450
65.4,383
65.48,330
65.56,381
65.64,457
65.72,561
65.8,513
65.88,413
65.96,337
66.04,305
66.12,298
66.2,282
66.28,351
66.36,263
66.44,251
66.52,248
66.6,245
66.68,255
66.76,266
66.84,265
66.92,353
67,353
67.08,365
67.16,525
67.24,520
67.32,547
67.4,652
67.48,806
67.56,864
67.64,844
67.72,862
67.8,762
67.88,672
67.96,446
68.04,397
68.12,353
68.2,282
68.28,296
68.36,282
68.44,280
68.52,240
68.6,277
68.68,222
68.76,238
68.84,263
68.92,249
69,293
69.08,291
69.16,374
69.24,377
69.32,296
69.4,347
69.48,360
69.56,335
69.64,286
69.72,333
69.8,330
69.88,303
69.96,282
70.04,330
70.12,372
70.2,407
70.28,462
70.36,483
70.44,575
70.52,688
70.6,723
70.68,642
70.76,654
70.84,765
70.92,843
71,797
71.08,672
71.16,686
71.24,561
71.32,432
71.4,333
71.48,381
71.56,303
71.64,310
71.72,266
71.8,321
71.88,335
71.96,314
72.04,296
72.12,342
72.2,432
72.28,513
72.36,448
72.44,469
72.52,425
72.6,594
72.68,686
72.76,799
72.84,825
72.92,762
73,753
73.08,832
73.16,809
73.24,866
73.32,834
73.4,892
73.48,686
73.56,642
73.64,501
73.72,395
73.8,370
73.88,416
73.96,372
74.04,416
74.12,480
74.2,517
74.28,541
74.36,751
74.44,894
74.52,1118
74.6,1351
74.68,1340
74.76,1127
74.84,922
74.92,665
75,478
75.08,444
75.16,321
75.24,323
75.32,291
75.4,270
75.48,280
75.56,263
75.64,300
75.72,266
75.8,316
75.88,273
75.96,266
76.04,298
76.12,303
76.2,310
76.28,326
76.36,270
76.44,347
76.52,316
76.6,427
76.68,478
76.76,432
76.84,462
76.92,388
77,356
77.08,356
77.16,252
77.24,247
77.32,263
77.4,233
77.48,231
77.56,270
77.64,196
77.72,245
77.8,219
77.88,226
77.96,249
78.04,236
78.12,238
78.2,245
78.28,203
78.36,252
78.44,196
78.52,213
78.6,229
78.68,245
78.76,215
78.84,231
78.92,256
79,259
79.08,249
79.16,254
79.24,249
79.32,254
79.4,323
79.48,321
79.56,333
79.64,374
79.72,485
79.8,561
79.88,628
79.96,605
80.04,517
80.12,413
80.2,340
80.28,337
80.36,289
80.44,291
80.52,263
80.6,284
80.68,219
80.76,247
80.84,261
80.92,344
81,280
81.08,305
81.16,307
81.24,282
81.32,316
81.4,307
81.48,291
81.56,300
81.64,303
81.72,381
81.8,266
81.88,330
81.96,280
82.04,330
82.12,356
82.2,340
82.28,316
82.36,305
82.44,310
82.52,282
82.6,224
82.68,280
82.76,226
82.84,263
82.92,256
83,268
83.08,268
83.16,263
83.24,289
83.32,231
83.4,263
83.48,268
83.56,263
83.64,277
83.72,296
83.8,252
83.88,321
83.96,268
84.04,328
84.12,328
84.2,337
84.28,319
84.36,374
84.44,349
84.52,400
84.6,411
84.68,437
84.76,427
84.84,411
84.92,575
85,587
85.08,695
85.16,711
85.24,714
85.32,573
85.4,633
85.48,529
85.56,520
85.64,383
85.72,326
85.8,337
85.88,335
85.96,333
86.04,321
86.12,321
86.2,298
86.28,340
86.36,273
86.44,310
86.52,275
86.6,347
86.68,310
86.76,307
86.84,305
86.92,303
87,289
87.08,347
87.16,314
87.24,397
87.32,430
87.4,402
87.48,363
87.56,367
87.64,363
87.72,356
87.8,353
87.88,337
87.96,342
88.04,432
88.12,370
88.2,453
88.28,420
88.36,506
88.44,437
88.52,402
88.6,457
88.68,381
88.76,423
88.84,580
88.92,654
89,723
89.08,603
89.16,520
89.24,580
89.32,453
89.4,381
89.48,347
89.56,323
89.64,293
89.72,305
89.8,312
89.88,353
89.96,388
90.04,469
90.12,425
90.2,511
90.28,474
90.36,531
90.44,501
90.52,432
90.6,418
90.68,400
90.76,323
90.84,323
90.92,381
91,249
91.08,305
91.16,270
91.24,282
91.32,284
91.4,277
91.48,307
91.56,347
91.64,344
91.72,409
91.8,390
91.88,335
91.96,381
92.04,372
92.12,312
92.2,344
92.28,284
92.36,307
92.44,259
92.52,312
92.6,298
92.68,293
92.76,277
92.84,280
92.92,270
93,300
93.08,296
93.16,305
93.24,349
93.32,377
93.4,409
93.48,425
93.56,420
93.64,432
93.72,411
93.8,425
93.88,418
93.96,418
94.04,450
94.12,397
94.2,319
94.28,381
94.36,307
94.44,372
94.52,335
94.6,386
94.68,330
94.76,289
94.84,314
94.92,321
95,374
95.08,453
95.16,379
95.24,416
95.32,474
95.4,464
95.48,434
95.56,409
95.64,462
95.72,450
95.8,400
95.88,349
95.96,360
96.04,328
96.12,363
96.2,314
96.28,275
96.36,293
96.44,266
96.52,307
96.6,337
96.68,319
96.76,365
96.84,444
96.92,430
97,467
97.08,464
97.16,492
97.24,462
97.32,485
97.4,504
97.48,508
97.56,527
97.64,430
97.72,420
97.8,418
97.88,397
97.96,402
98.04,425
98.12,395
98.2,326
98.28,353
98.36,388
98.44,427
98.52,388
98.6,390
98.68,379
98.76,390
98.84,418
98.92,377
99,439
99.08,444
99.16,520
99.24,566
99.32,571
99.4,543
99.48,531
99.56,557
99.64,566
99.72,501
99.8,601
99.88,467
99.96,531
100.04,460
100.12,393
100.2,471
100.28,591
100.36,640
100.44,638
100.52,568
100.6,494
100.68,554
100.76,557
100.84,561
100.92,457
101,471
101.08,497
101.16,485
101.24,444
101.32,492
101.4,460
101.48,416
101.56,381
101.64,347
101.72,370
101.8,365
101.88,420
101.96,347
102.04,450
102.12,446
102.2,499
102.28,478
102.36,450
102.44,508
102.52,543
102.6,448
102.68,529
102.76,547
102.84,480
102.92,413
103,450
103.08,418
103.16,395
103.24,365
103.32,386
103.4,307
103.48,326
103.56,291
103.64,291
103.72,263
103.8,305
103.88,310
103.96,266
104.04,321
104.12,291
104.2,349
104.28,326
104.36,303
104.44,337
104.52,321
104.6,316
104.68,358
104.76,314
104.84,344
104.92,400
105,386
105.08,395
105.16,383
105.24,395
105.32,374
105.4,344
105.48,321
105.56,388
105.64,374
105.72,353
105.8,444
105.88,425
105.96,416
106.04,457
106.12,469
106.2,478
106.28,439
106.36,469
106.44,554
106.52,536
106.6,587
106.68,511
106.76,487
106.84,450
106.92,487
107,400
107.08,381
107.16,298
107.24,360
107.32,340
107.4,333
107.48,358
107.56,377
107.64,319
107.72,298
107.8,335
107.88,333
107.96,349
108.04,328
108.12,379
108.2,351
108.28,335
108.36,342
108.44,390
108.52,383
108.6,363
108.68,353
108.76,441
108.84,416
108.92,409
109,356
109.08,367
109.16,367
109.24,363
109.32,404
109.4,351
109.48,328
109.56,340
109.64,342
109.72,367
109.8,358
109.88,367
109.96,342
110.04,282
110.12,305
110.2,298
110.28,328
110.36,307
110.44,367
110.52,349
110.6,379
110.68,303
110.76,388
110.84,383
110.92,347
111,386
111.08,425
111.16,464
111.24,504
111.32,621
111.4,524
111.48,471
111.56,501
111.64,464
111.72,559
111.8,545
111.88,594
111.96,624
112.04,578
112.12,610
112.2,635
112.28,527
112.36,501
112.44,527
112.52,469
112.6,554
112.68,476
112.76,497
112.84,464
112.92,455
113,529
113.08,538
113.16,559
113.24,561
113.32,554
113.4,584
113.48,591
113.56,541
113.64,536
113.72,476
113.8,453
113.88,450
113.96,441
114.04,446
114.12,418
114.2,388
114.28,444
114.36,439
114.44,446
114.52,363
114.6,418
114.68,425
114.76,386
114.84,462
114.92,393
115,420
115.08,420
115.16,455
115.24,363
115.32,397
115.4,446
115.48,404
115.56,370
115.64,333
115.72,397
115.8,312
115.88,383
115.96,337
116.04,367
116.12,307
116.2,310
116.28,347
116.36,293
116.44,263
116.52,367
116.6,312
116.68,351
116.76,321
116.84,300
116.92,330
117,379
117.08,347
117.16,347
117.24,349
117.32,358
117.4,425
117.48,413
117.56,400
117.64,404
117.72,400
117.8,418
117.88,377
117.96,356
118.04,400
118.12,360
118.2,388
118.28,363
118.36,425
118.44,404
118.52,462
118.6,464
118.68,453
118.76,450
118.84,517
118.92,499
119,504
119.08,462
119.16,487
119.24,494
119.32,462
119.4,469
119.48,462
119.56,497
119.64,441
119.72,397
119.8,420
119.88,370
119.96,413
120.02,409