File: data/xrd_icdd_PDF/00-062-0119 (PD3).csv
7,8422
7.07,8489
7.14,8265
7.21,8359
7.28,8319
7.35,8336
7.42,8415
7.49,8492
7.56,8389
7.63,8446
7.7,8349
7.77,8283
7.84,8500
7.91,8283
7.98,8262
8.05,8348
8.12,8389
8.19,8318
8.26,8306
8.33,8248
8.4,8325
8.47,8294
8.54,8164
8.61,8093
8.68,8173
8.75,8289
8.82,8229
8.89,8397
8.96,8218
9.03,8199
9.1,8089
9.17,8254
9.24,8123
9.31,8093
9.38,8158
9.45,8081
9.52,8333
9.59,8469
9.66,8208
9.73,7971
9.8,8010
9.87,8072
9.94,8010
10.01,8081
10.08,8025
10.15,8075
10.22,8082
10.29,8106
10.36,7881
10.43,7988
10.5,7860
10.57,7978
10.64,7851
10.71,8007
10.78,7825
10.85,8047
10.92,7967
10.99,7837
11.06,7895
11.13,7791
11.2,7810
11.27,7749
11.34,7795
11.41,7803
11.48,7770
11.55,7767
11.62,7729
11.69,7667
11.76,7770
11.83,7753
11.9,7563
11.97,7701
12.04,7853
12.11,7741
12.18,7713
12.25,7561
12.32,7706
12.39,7553
12.46,7679
12.53,7416
12.6,7534
12.67,7661
12.74,7552
12.81,7765
12.88,7686
12.95,7491
13.02,7820
13.09,7629
13.16,7574
13.23,7444
13.3,7449
13.37,7426
13.44,7559
13.51,7707
13.58,7452
13.65,7386
13.72,7408
13.79,7519
13.86,7527
13.93,7478
14,7369
14.07,7459
14.14,7398
14.21,7506
14.28,7458
14.35,7458
14.42,7490
14.49,7391
14.56,7283
14.63,7477
14.7,7476
14.77,7232
14.84,7436
14.91,7264
14.98,7293
15.05,7549
15.12,7341
15.19,7189
15.26,7402
15.33,7225
15.4,7255
15.47,7235
15.54,7177
15.61,7300
15.68,7304
15.75,7337
15.82,7219
15.89,7249
15.96,7201
16.03,7215
16.1,7217
16.17,7262
16.24,7251
16.31,7214
16.38,7154
16.45,7227
16.52,7189
16.59,7064
16.66,7158
16.73,7154
16.8,7087
16.87,7104
16.94,7087
17.01,7172
17.08,7260
17.15,7087
17.22,7312
17.29,7156
17.36,7053
17.43,7012
17.5,6966
17.57,7106
17.64,7094
17.71,7031
17.78,7039
17.85,6966
17.92,7066
17.99,7128
18.06,7270
18.13,7111
18.2,7138
18.27,6943
18.34,7207
18.41,7044
18.48,7038
18.55,7025
18.62,7058
18.69,7013
18.76,6928
18.83,7011
18.9,6864
18.97,6843
19.04,6904
19.11,6806
19.18,7023
19.25,6986
19.32,6912
19.39,6910
19.46,6803
19.53,6945
19.6,6980
19.67,6801
19.74,6708
19.81,6657
19.88,6653
19.95,6869
20.02,6789
20.09,6876
20.16,6872
20.23,6707
20.3,6901
20.37,6836
20.44,6701
20.51,6863
20.58,6851
20.65,6879
20.72,6814
20.79,6800
20.86,6688
20.93,6870
21,7043
21.07,6938
21.14,6747
21.21,6884
21.28,6782
21.35,6734
21.42,6701
21.49,6728
21.56,6662
21.63,6653
21.7,6697
21.77,6721
21.84,6703
21.91,6770
21.98,7003
22.05,6790
22.12,6708
22.19,6793
22.26,6795
22.33,6819
22.4,6841
22.47,6561
22.54,6674
22.61,6806
22.68,6692
22.75,6857
22.82,6853
22.89,6696
22.96,6478
23.03,6645
23.1,6612
23.17,6509
23.24,6689
23.31,6624
23.38,6517
23.45,6691
23.52,6518
23.59,6640
23.66,6589
23.73,6686
23.8,6768
23.87,6844
23.94,6672
24.01,6373
24.08,6552
24.15,6525
24.22,6465
24.29,6457
24.36,6431
24.43,6504
24.5,6634
24.57,6621
24.64,6449
24.71,6481
24.78,6530
24.85,6488
24.92,6552
24.99,6367
25.06,6351
25.13,6379
25.2,6335
25.27,6509
25.34,6346
25.41,6518
25.48,6352
25.55,6377
25.62,6346
25.69,6455
25.76,6355
25.83,6429
25.9,6561
25.97,6761
26.04,6989
26.11,8718
26.18,14674
26.25,19849
26.32,13842
26.39,8378
26.46,6883
26.53,6632
26.6,6651
26.67,6677
26.74,6606
26.81,6732
26.88,6542
26.95,6415
27.02,6314
27.09,6224
27.16,6279
27.23,6319
27.3,6180
27.37,6246
27.44,6241
27.51,6077
27.58,6230
27.65,6223
27.72,6280
27.79,6397
27.86,6476
27.93,6700
28,6514
28.07,6581
28.14,6326
28.21,6282
28.28,6263
28.35,6132
28.42,6222
28.49,6182
28.56,6210
28.63,6273
28.7,6202
28.77,6077
28.84,6311
28.91,6521
28.98,7121
29.05,7686
29.12,7358
29.19,6619
29.26,6454
29.33,6497
29.4,6534
29.47,6607
29.54,6490
29.61,6471
29.68,6209
29.75,6262
29.82,6166
29.89,6131
29.96,6065
30.03,6127
30.1,6032
30.17,6165
30.24,6113
30.31,6286
30.38,6398
30.45,6591
30.52,6740
30.59,7460
30.66,7529
30.73,7301
30.8,7108
30.87,7406
30.94,9059
31.01,13986
31.08,15307
31.15,10549
31.22,7985
31.29,6973
31.36,6343
31.43,6225
31.5,6134
31.57,6304
31.64,6225
31.71,6668
31.78,6675
31.85,6785
31.92,6586
31.99,6490
32.06,6492
32.13,6564
32.2,6545
32.27,6717
32.34,7070
32.41,7812
32.48,9678
32.55,13946
32.62,16165
32.69,23487
32.76,33684
32.83,23344
32.9,11682
32.97,7837
33.04,6873
33.11,6524
33.18,6672
33.25,7012
33.32,8298
33.39,8606
33.46,7132
33.53,6409
33.6,6196
33.67,5990
33.74,5985
33.81,5880
33.88,5940
33.95,5953
34.02,5980
34.09,5995
34.16,5965
34.23,5904
34.3,5943
34.37,5842
34.44,5937
34.51,5781
34.58,5952
34.65,5845
34.72,5877
34.79,5687
34.86,5796
34.93,5867
35,5797
35.07,5856
35.14,5776
35.21,5918
35.28,5811
35.35,5835
35.42,5769
35.49,5758
35.56,5810
35.63,5817
35.7,5710
35.77,5783
35.84,5893
35.91,5853
35.98,5850
36.05,5847
36.12,5781
36.19,5846
36.26,5766
36.33,5817
36.4,5948
36.47,5985
36.54,6041
36.61,6524
36.68,8023
36.75,12455
36.82,14600
36.89,9998
36.96,7113
37.03,6435
37.1,6060
37.17,5912
37.24,5836
37.31,5827
37.38,5850
37.45,5770
37.52,5790
37.59,5815
37.66,5744
37.73,5856
37.8,5766
37.87,5756
37.94,5697
38.01,5684
38.08,5656
38.15,5666
38.22,5823
38.29,5764
38.36,5776
38.43,5787
38.5,5778
38.57,5654
38.64,5734
38.71,5587
38.78,5644
38.85,5601
38.92,5784
38.99,5825
39.06,5906
39.13,5810
39.2,5743
39.27,5769
39.34,5779
39.41,5730
39.48,5630
39.55,5717
39.62,5647
39.69,5741
39.76,5737
39.83,5703
39.9,5804
39.97,5755
40.04,5771
40.11,5595
40.18,5692
40.25,5600
40.32,5632
40.39,5733
40.46,5709
40.53,5688
40.6,5604
40.67,5662
40.74,5826
40.81,5662
40.88,5733
40.95,5792
41.02,5719
41.09,5789
41.16,5678
41.23,5530
41.3,5576
41.37,5657
41.44,5612
41.51,5672
41.58,5637
41.65,5615
41.72,5851
41.79,5584
41.86,5553
41.93,5543
42,5599
42.07,5542
42.14,5581
42.21,5551
42.28,5697
42.35,5584
42.42,5765
42.49,5814
42.56,5636
42.63,5691
42.7,5624
42.77,5679
42.84,5636
42.91,5664
42.98,5599
43.05,5652
43.12,5683
43.19,5731
43.26,5751
43.33,5800
43.4,5844
43.47,5802
43.54,5788
43.61,5762
43.68,5803
43.75,5645
43.82,5671
43.89,5597
43.96,5598
44.03,5775
44.1,5811
44.17,6007
44.24,6138
44.31,7070
44.38,9316
44.45,14789
44.52,16576
44.59,10946
44.66,7604
44.73,6563
44.8,6343
44.87,6271
44.94,6772
45.01,7002
45.08,6510
45.15,5855
45.22,5738
45.29,5756
45.36,5533
45.43,5637
45.5,5576
45.57,5538
45.64,5587
45.71,5721
45.78,5473
45.85,5661
45.92,5584
45.99,5485
46.06,5652
46.13,5635
46.2,5654
46.27,5670
46.34,5477
46.41,5495
46.48,5677
46.55,5827
46.62,5563
46.69,5578
46.76,5552
46.83,5556
46.9,5570
46.97,5489
47.04,5592
47.11,5674
47.18,5709
47.25,5629
47.32,5658
47.39,5468
47.46,5528
47.53,5488
47.6,5456
47.67,5437
47.74,5542
47.81,5410
47.88,5256
47.95,5362
48.02,5340
48.09,5326
48.16,5403
48.23,5336
48.3,5308
48.37,5387
48.44,5344
48.51,5445
48.58,5679
48.65,5522
48.72,5500
48.79,5449
48.86,5263
48.93,5365
49,5439
49.07,5243
49.14,5438
49.21,5530
49.28,5737
49.35,6128
49.42,6853
49.49,6662
49.56,6124
49.63,5911
49.7,6124
49.77,6971
49.84,7621
49.91,6956
49.98,6203
50.05,5890
50.12,5643
50.19,5632
50.26,5665
50.33,5682
50.4,5607
50.47,5815
50.54,6041
50.61,7374
50.68,10234
50.75,11593
50.82,9209
50.89,7014
50.96,6177
51.03,5867
51.1,5700
51.17,5672
51.24,5505
51.31,5487
51.38,5460
51.45,5330
51.52,5426
51.59,5360
51.66,5375
51.73,5424
51.8,5423
51.87,5388
51.94,5428
52.01,5396
52.08,5465
52.15,5664
52.22,5741
52.29,6564
52.36,7873
52.43,8293
52.5,6772
52.57,5776
52.64,5553
52.71,5445
52.78,5291
52.85,5373
52.92,5351
52.99,5289
53.06,5311
53.13,5262
53.2,5245
53.27,5231
53.34,5330
53.41,5347
53.48,5328
53.55,5194
53.62,5305
53.69,5340
53.76,5346
53.83,5385
53.9,5468
53.97,6040
54.04,6326
54.11,5989
54.18,5574
54.25,5370
54.32,5374
54.39,5360
54.46,5235
54.53,5306
54.6,5294
54.67,5293
54.74,5285
54.81,5285
54.88,5217
54.95,5247
55.02,5302
55.09,5227
55.16,5262
55.23,5294
55.3,5382
55.37,5138
55.44,5251
55.51,5323
55.58,5163
55.65,5220
55.72,5246
55.79,5456
55.86,5350
55.93,5327
56,5605
56.07,5767
56.14,6232
56.21,7451
56.28,10941
56.35,13606
56.42,10696
56.49,7577
56.56,6277
56.63,5816
56.7,5557
56.77,5438
56.84,5459
56.91,5491
56.98,5524
57.05,5449
57.12,5324
57.19,5302
57.26,5298
57.33,5314
57.4,5157
57.47,5090
57.54,5295
57.61,5043
57.68,5106
57.75,5115
57.82,5206
57.89,5145
57.96,5209
58.03,5089
58.1,5126
58.17,5175
58.24,5139
58.31,5076
58.38,5100
58.45,5202
58.52,5147
58.59,5100
58.66,5089
58.73,5059
58.8,5093
58.87,5184
58.94,5097
59.01,5149
59.08,5031
59.15,5115
59.22,5162
59.29,5175
59.36,5351
59.43,5419
59.5,5847
59.57,6147
59.64,5889
59.71,5454
59.78,5297
59.85,5114
59.92,5151
59.99,5197
60.06,5243
60.13,5254
60.2,5371
60.27,5490
60.34,5390
60.41,5528
60.48,5463
60.55,5142
60.62,5296
60.69,5229
60.76,5259
60.83,5214
60.9,5191
60.97,4957
61.04,5069
61.11,4914
61.18,5021
61.25,5156
61.32,5061
61.39,4949
61.46,5051
61.53,5146
61.6,4916
61.67,5031
61.74,5000
61.81,4940
61.88,5048
61.95,5147
62.02,5236
62.09,5234
62.16,5184
62.23,4974
62.3,5021
62.37,5067
62.44,5116
62.51,5041
62.58,4975
62.65,4988
62.72,5031
62.79,4971
62.86,4895
62.93,4934
63,5022
63.07,4899
63.14,4845
63.21,4917
63.28,4941
63.35,4946
63.42,5047
63.49,4901
63.56,5000
63.63,4989
63.7,4946
63.77,4865
63.84,4937
63.91,4938
63.98,4945
64.05,4908
64.12,4906
64.19,4998
64.26,5005
64.33,4977
64.4,5043
64.47,5079
64.54,5198
64.61,5708
64.68,6608
64.75,7362
64.82,6630
64.89,5709
64.96,5261
65.03,5150
65.1,4927
65.17,5042
65.24,5102
65.31,4954
65.38,4973
65.45,4925
65.52,4908
65.59,4914
65.66,4854
65.73,4811
65.8,4835
65.87,4867
65.94,4862
66.01,5001
66.08,4824
66.15,4835
66.22,4766
66.29,4868
66.36,4854
66.43,4908
66.5,4785
66.57,4931
66.64,4828
66.71,4816
66.78,4839
66.85,4875
66.92,4940
66.99,4781
67.06,4854
67.13,4872
67.2,4903
67.27,4946
67.34,4759
67.41,4747
67.48,4842
67.55,4899
67.62,4859
67.69,4795
67.76,4759
67.83,4919
67.9,4760
67.97,4707
68.04,4797
68.11,4951
68.18,4916
68.25,4881
68.32,4810
68.39,4884
68.46,5003
68.53,5165
68.6,5663
68.67,6246
68.74,6177
68.81,5674
68.88,5602
68.95,5928
69.02,6063
69.09,5686
69.16,5150
69.23,5020
69.3,4957
69.37,4872
69.44,4791
69.51,4855
69.58,4788
69.65,4763
69.72,4953
69.79,4750
69.86,4709
69.93,4860
70,4935
70.07,5059
70.14,5075
70.21,5069
70.28,5053
70.35,4981
70.42,4876
70.49,4866
70.56,4758
70.63,4800
70.7,4724
70.77,4839
70.84,4679
70.91,4719
70.98,4917
71.05,5042
71.12,5235
71.19,5061
71.26,4880
71.33,4825
71.4,4749
71.47,4803
71.54,4760
71.61,4883
71.68,4898
71.75,4859
71.82,4709
71.89,4851
71.96,4651
72.03,4660
72.1,4597
72.17,4696
72.24,4722
72.31,4848
72.38,4802
72.45,4906
72.52,4908
72.59,4938
72.66,4819
72.73,4771
72.8,4669
72.87,4657
72.94,4655
73.01,4750
73.08,4714
73.15,4706
73.22,4760
73.29,4819
73.36,4950
73.43,5057
73.5,5399
73.57,5526
73.64,5294
73.71,4903
73.78,4861
73.85,4858
73.92,4692
73.99,4759
74.06,4788
74.13,4707
74.2,4944
74.27,5307
74.34,5606
74.41,6096
74.48,6289
74.55,5889
74.62,5227
74.69,4917
74.76,4871
74.83,4675
74.9,4788
74.97,4704
75.04,4745
75.11,4657
75.18,4708
75.25,4584
75.32,4625
75.39,4697
75.46,4647
75.53,4658
75.6,4667
75.67,4613
75.74,4547
75.81,4554
75.88,4602
75.95,4578
76.02,4538
76.09,4579
76.16,4605
76.23,4576
76.3,4617
76.37,4636
76.44,4596
76.51,4608
76.58,4576
76.65,4771
76.72,4861
76.79,5160
76.86,5480
76.93,5248
77,4985
77.07,4791
77.14,4632
77.21,4612
77.28,4722
77.35,4876
77.42,4932
77.49,4755
77.56,4729
77.63,4657
77.7,4615
77.77,4787
77.84,4793
77.91,5148
77.98,4795
78.05,4763
78.12,4526
78.19,4662
78.26,4719
78.33,4616
78.4,4558
78.47,4476
78.54,4476
78.61,4434
78.68,4387
78.75,4428
78.82,4497
78.89,4322
78.96,4291
79.03,4371
79.1,4319
79.17,4473
79.24,4470
79.31,4387
79.38,4565
79.45,4283
79.52,4399
79.59,4557
79.66,4359
79.73,4456
79.8,4434
79.87,4602
79.94,4639
80.01,4737
80.08,5007
80.15,5098
80.22,5044
80.29,4833
80.36,4670
80.43,4530
80.5,4504
80.57,4524
80.64,4481
80.71,4562
80.78,4338
80.85,4499
80.92,4350
80.99,4474
81.06,4440
81.13,4409
81.2,4473
81.27,4314
81.34,4343
81.41,4413
81.48,4306
81.55,4399
81.62,4322
81.69,4438
81.76,4423
81.83,4399
81.9,4372
81.97,4426
82.04,4338
82.11,4357
82.18,4372
82.25,4276
82.32,4337
82.39,4283
82.46,4444
82.53,4283
82.6,4306
82.67,4391
82.74,4434
82.81,4363
82.88,4337
82.95,4345
83.02,4326
83.09,4258
83.16,4368
83.23,4292
83.3,4340
83.37,4448
83.44,4315
83.51,4428
83.58,4353
83.65,4309
83.72,4367
83.79,4312
83.86,4427
83.93,4273
84,4522
84.07,4449
84.14,4435
84.21,4482
84.28,4431
84.35,4351
84.42,4375
84.49,4357
84.56,4296
84.63,4187
84.7,4312
84.77,4240
84.84,4236
84.91,4265
84.98,4288
85.05,4416
85.12,4272
85.19,4253
85.26,4326
85.33,4340
85.4,4356
85.47,4538
85.54,4740
85.61,4847
85.68,4617
85.75,4550
85.82,4476
85.89,4476
85.96,4551
86.03,4319
86.1,4289
86.17,4354
86.24,4302
86.31,4389
86.38,4530
86.45,4676
86.52,4928
86.59,5229
86.66,5247
86.73,4800
86.8,4589
86.87,4442
86.94,4329
87.01,4577
87.08,4571
87.15,4431
87.22,4540
87.29,4234
87.36,4238
87.43,4246
87.5,4252
87.57,4119
87.64,4228
87.71,4317
87.78,4391
87.85,4551
87.92,4562
87.99,4374
88.06,4338
88.13,4353
88.2,4208
88.27,4274
88.34,4306
88.41,4322
88.48,4294
88.55,4115
88.62,4188
88.69,4193
88.76,4206
88.83,4100
88.9,4105
88.97,4080
89.04,4146
89.11,4050
89.18,4158
89.25,3979
89.32,4097
89.39,4028
89.46,4118
89.53,3978
89.6,4132
89.67,4085
89.74,4081
89.81,3958
89.88,4174
89.95,4052
90.02,4043
90.09,3919
90.16,4038
90.23,4047
90.3,4017
90.37,4073
90.44,4005
90.51,4115
90.58,4067
90.65,4132
90.72,4179
90.79,4192
90.86,4183
90.93,4220
91,4724
91.07,4830
91.14,5189
91.21,4841
91.28,4387
91.35,4303
91.42,4258
91.49,4288
91.56,4215
91.63,4051
91.7,4016
91.77,3996
91.84,3970
91.91,3969
91.98,3977
92.05,3938
92.12,3997
92.19,4019
92.26,3962
92.33,3807
92.4,4023
92.47,3826
92.54,3971
92.61,3974
92.68,3889
92.75,3959
92.82,3966
92.89,4068
92.96,3990
93.03,3987
93.1,3882
93.17,3996
93.24,3932
93.31,4028
93.38,3987
93.45,3965
93.52,3911
93.59,4014
93.66,3984
93.73,4185
93.8,4230
93.87,4108
93.94,4080
94.01,3969
94.08,4015
94.15,3967
94.22,3998
94.29,3985
94.36,4101
94.43,4170
94.5,4198
94.57,4194
94.64,4125
94.71,4143
94.78,4155
94.85,4050
94.92,3941
94.99,3926
95.06,3838
95.13,3850
95.2,3813
95.27,3794
95.34,3889
95.41,3684
95.48,3856
95.55,3724
95.62,3817
95.69,3845
95.76,3818
95.83,3773
95.9,3869
95.97,3796
96.04,3750
96.11,3728
96.18,3888
96.25,3831
96.32,3720
96.39,3808
96.46,3702
96.53,3767
96.6,3716
96.67,3687
96.74,3751
96.81,3758
96.88,3815
96.95,3747
97.02,3654
97.09,3856
97.16,3674
97.23,3722
97.3,3788
97.37,3853
97.44,3708
97.51,3557
97.58,3774
97.65,3797
97.72,3694
97.79,3762
97.86,3737
97.93,3723
98,3781
98.07,3671
98.14,3844
98.21,3840
98.28,4040
98.35,4092
98.42,4091
98.49,4109
98.56,3988
98.63,3862
98.7,3703
98.77,3796
98.84,3834
98.91,3826
98.98,3703
99.05,3796
99.12,3626
99.19,3653
99.26,3676
99.33,3596
99.4,3642
99.47,3549
99.54,3672
99.61,3593
99.68,3716
99.75,3582
99.82,3571
99.89,3639
99.96,3674
100.03,3587
100.1,3560
100.17,3604
100.24,3546
100.31,3620
100.38,3699
100.45,3788
100.52,3653
100.59,3670
100.66,3545
100.73,3567
100.8,3468
100.87,3610
100.94,3632
101.01,3631
101.08,3566
101.15,3511
101.22,3632
101.29,3596
101.36,3528
101.43,3516
101.5,3411
101.57,3489
101.64,3487
101.71,3545
101.78,3610
101.85,3532
101.92,3462
101.99,3478
102.06,3496
102.13,3601
102.2,3667
102.27,3563
102.34,3691
102.41,3787
102.48,3779
102.55,3602
102.62,3504
102.69,3419
102.76,3502
102.83,3456
102.9,3320
102.97,3416
103.04,3501
103.11,3398
103.18,3441
103.25,3444
103.32,3426
103.39,3377
103.46,3446
103.53,3417
103.6,3568
103.67,3610
103.74,3531
103.81,3555
103.88,3387
103.95,3307
104.02,3306
104.09,3364
104.16,3449
104.23,3459
104.3,3448
104.37,3407
104.44,3540
104.51,3422
104.58,3465
104.65,3405
104.72,3410
104.79,3393
104.86,3336
104.93,3339
105,3384
105.07,3357
105.14,3380
105.21,3348
105.28,3324
105.35,3278
105.42,3320
105.49,3210
105.56,3358
105.63,3276
105.7,3298
105.77,3163
105.84,3264
105.91,3191
105.98,3203
106.05,3235
106.12,3223
106.19,3158
106.26,3224
106.33,3130
106.4,3237
106.47,3201
106.54,3101
106.61,3171
106.68,3177
106.75,3131
106.82,3301
106.89,3163
106.96,3058
107.03,3152
107.1,3097
107.17,3071
107.24,3129
107.31,3084
107.38,3110
107.45,3111
107.52,3121
107.59,3143
107.66,3256
107.73,3422
107.8,3522
107.87,3529
107.94,3289
108.01,3126
108.08,3094
108.15,3037
108.22,2931
108.29,2897
108.36,2850
108.43,2963
108.5,2897
108.57,2866
108.64,2838
108.71,2824
108.78,2788
108.85,2758
108.92,2809
108.99,2761
109.06,2849
109.13,2807
109.2,2781
109.27,2795
109.34,2829
109.41,2741
109.48,2788
109.55,2789
109.62,2789
109.69,2831
109.76,2673
109.83,2653
109.9,2620
109.97,2642
109.99,2746