File: data/xrd_icdd_PDF/00-056-1356 (PD3).csv
5,3555
5.08,3684
5.16,3548
5.24,3539
5.32,3588
5.4,3558
5.48,3701
5.56,3591
5.64,3585
5.72,3536
5.8,3524
5.88,3586
5.96,3580
6.04,3410
6.12,3502
6.2,3633
6.28,3496
6.36,3458
6.44,3510
6.52,3352
6.6,3409
6.68,3545
6.76,3406
6.84,3425
6.92,3588
7,3513
7.08,3336
7.16,3487
7.24,3360
7.32,3404
7.4,3407
7.48,3320
7.56,3403
7.64,3329
7.72,3319
7.8,3320
7.88,3409
7.96,3375
8.04,3331
8.12,3416
8.2,3357
8.28,3286
8.36,3266
8.44,3317
8.52,3312
8.6,3302
8.68,3221
8.76,3269
8.84,3297
8.92,3274
9,3188
9.08,3202
9.16,3197
9.24,3218
9.32,3214
9.4,3103
9.48,3169
9.56,3133
9.64,3063
9.72,3059
9.8,3023
9.88,2989
9.96,3087
10.04,3038
10.12,3050
10.2,3128
10.28,3071
10.36,3124
10.44,2970
10.52,2954
10.6,2965
10.68,2940
10.76,2958
10.84,2916
10.92,2992
11,2909
11.08,2980
11.16,2931
11.24,2923
11.32,2890
11.4,2821
11.48,2911
11.56,2940
11.64,2823
11.72,2880
11.8,2799
11.88,2932
11.96,3159
12.04,2990
12.12,2818
12.2,2726
12.28,2787
12.36,2804
12.44,2798
12.52,2831
12.6,2686
12.68,2667
12.76,2768
12.84,2670
12.92,2761
13,2649
13.08,2636
13.16,2738
13.24,2647
13.32,2701
13.4,2674
13.48,2640
13.56,2599
13.64,2637
13.72,2554
13.8,2530
13.88,2549
13.96,2553
14.04,2494
14.12,2552
14.2,2516
14.28,2591
14.36,2501
14.44,2472
14.52,2519
14.6,2439
14.68,2430
14.76,2528
14.84,2466
14.92,2466
15,2462
15.08,2489
15.16,2362
15.24,2389
15.32,2398
15.4,2448
15.48,2431
15.56,2384
15.64,2404
15.72,2432
15.8,2405
15.88,2392
15.96,2441
16.04,2324
16.12,2384
16.2,2360
16.28,2272
16.36,2330
16.44,2478
16.52,2366
16.6,2386
16.68,2415
16.76,2831
16.84,4651
16.92,9012
17,10807
17.08,3538
17.16,2514
17.24,2411
17.32,2257
17.4,2335
17.48,2269
17.56,2285
17.64,2214
17.72,2180
17.8,2192
17.88,2196
17.96,2235
18.04,2276
18.12,2334
18.2,2213
18.28,2153
18.36,2220
18.44,2276
18.52,2178
18.6,2121
18.68,2135
18.76,2194
18.84,2168
18.92,2163
19,2055
19.08,2186
19.16,2147
19.24,2148
19.32,2117
19.4,2072
19.48,2102
19.56,2055
19.64,2110
19.72,2062
19.8,2027
19.88,2110
19.96,2010
20.04,2023
20.12,2033
20.2,2017
20.28,2033
20.36,2053
20.44,2033
20.52,1950
20.6,2050
20.68,1938
20.76,1971
20.84,2037
20.92,1967
21,1994
21.08,2006
21.16,2069
21.24,1994
21.32,2015
21.4,2493
21.48,4160
21.56,5558
21.64,2735
21.72,2011
21.8,1986
21.88,1893
21.96,1900
22.04,1875
22.12,1998
22.2,1845
22.28,1914
22.36,1936
22.44,1960
22.52,1834
22.6,1910
22.68,1888
22.76,1856
22.84,1845
22.92,1868
23,1849
23.08,1834
23.16,1834
23.24,1846
23.32,1828
23.4,1842
23.48,1780
23.56,1772
23.64,1809
23.72,1777
23.8,1738
23.88,1812
23.96,1768
24.04,1756
24.12,1765
24.2,1736
24.28,1791
24.36,1697
24.44,1837
24.52,2079
24.6,3973
24.68,9038
24.76,8883
24.84,2482
24.92,1888
25,1731
25.08,1725
25.16,1640
25.24,1647
25.32,1591
25.4,1713
25.48,1662
25.56,1642
25.64,1700
25.72,1691
25.8,1642
25.88,1647
25.96,1654
26.04,1635
26.12,1685
26.2,1618
26.28,1593
26.36,1609
26.44,1609
26.52,1639
26.6,1641
26.68,1557
26.76,1554
26.84,1675
26.92,2191
27,2386
27.08,1681
27.16,1537
27.24,1470
27.32,1569
27.4,1548
27.48,1515
27.56,1489
27.64,1470
27.72,1500
27.8,1520
27.88,1518
27.96,1494
28.04,1441
28.12,1464
28.2,1484
28.28,1489
28.36,1524
28.44,1533
28.52,1532
28.6,1496
28.68,1434
28.76,1415
28.84,1467
28.92,1394
29,1437
29.08,1417
29.16,1428
29.24,1468
29.32,1471
29.4,1490
29.48,1424
29.56,1428
29.64,1560
29.72,1686
29.8,1816
29.88,1966
29.96,3555
30.04,13664
30.12,33036
30.2,16851
30.28,3109
30.36,1913
30.44,1640
30.52,1541
30.6,1488
30.68,1505
30.76,1469
30.84,1384
30.92,1384
31,1363
31.08,1372
31.16,1338
31.24,1366
31.32,1371
31.4,1321
31.48,1325
31.56,1334
31.64,1300
31.72,1349
31.8,1363
31.88,1301
31.96,1364
32.04,1285
32.12,1262
32.2,1338
32.28,1299
32.36,1238
32.44,1300
32.52,1328
32.6,1259
32.68,1330
32.76,1255
32.84,1259
32.92,1239
33,1316
33.08,1370
33.16,1301
33.24,1221
33.32,1290
33.4,1280
33.48,1337
33.56,1307
33.64,1324
33.72,1290
33.8,1343
33.88,1286
33.96,1327
34.04,1331
34.12,1656
34.2,3009
34.28,7629
34.36,7388
34.44,2174
34.52,1440
34.6,1362
34.68,1285
34.76,1268
34.84,1245
34.92,1257
35,1266
35.08,1200
35.16,1293
35.24,1197
35.32,1289
35.4,1269
35.48,1201
35.56,1252
35.64,1268
35.72,1569
35.8,2688
35.88,3209
35.96,1782
36.04,2123
36.12,3647
36.2,2246
36.28,1400
36.36,1258
36.44,1411
36.52,1365
36.6,1290
36.68,1208
36.76,1201
36.84,1208
36.92,1192
37,1233
37.08,1165
37.16,1203
37.24,1167
37.32,1185
37.4,1209
37.48,1133
37.56,1156
37.64,1137
37.72,1181
37.8,1185
37.88,1197
37.96,1186
38.04,1150
38.12,1218
38.2,1236
38.28,1207
38.36,1457
38.44,2521
38.52,3952
38.6,2125
38.68,1325
38.76,1261
38.84,1635
38.92,2392
39,1753
39.08,1209
39.16,1164
39.24,1147
39.32,1157
39.4,1143
39.48,1132
39.56,1133
39.64,1102
39.72,1249
39.8,1329
39.88,1979
39.96,2001
40.04,1621
40.12,2757
40.2,2941
40.28,1400
40.36,1217
40.44,1189
40.52,1156
40.6,1101
40.68,1105
40.76,1138
40.84,1204
40.92,1207
41,1131
41.08,1286
41.16,1292
41.24,1154
41.32,1206
41.4,1134
41.48,1097
41.56,1082
41.64,1066
41.72,1155
41.8,1122
41.88,1073
41.96,1090
42.04,1124
42.12,1107
42.2,1156
42.28,1111
42.36,1199
42.44,1145
42.52,1159
42.6,1393
42.68,2688
42.76,3694
42.84,1822
42.92,1258
43,1137
43.08,1119
43.16,1077
43.24,1096
43.32,1080
43.4,1038
43.48,1075
43.56,1106
43.64,1130
43.72,1215
43.8,1393
43.88,2029
43.96,1500
44.04,1169
44.12,1126
44.2,1091
44.28,1080
44.36,1071
44.44,1087
44.52,1036
44.6,1120
44.68,1105
44.76,1051
44.84,1072
44.92,1108
45,1050
45.08,1061
45.16,1093
45.24,1086
45.32,1071
45.4,1057
45.48,1117
45.56,1392
45.64,2196
45.72,1728
45.8,1123
45.88,1043
45.96,1071
46.04,1071
46.12,1008
46.2,1039
46.28,1056
46.36,1027
46.44,1035
46.52,1014
46.6,1028
46.68,1073
46.76,1052
46.84,1030
46.92,1033
47,1067
47.08,1102
47.16,1094
47.24,1067
47.32,1122
47.4,1081
47.48,1017
47.56,986
47.64,1070
47.72,1062
47.8,1115
47.88,1212
47.96,1781
48.04,1860
48.12,1261
48.2,1278
48.28,1235
48.36,1034
48.44,1067
48.52,1046
48.6,992
48.68,1088
48.76,1073
48.84,1073
48.92,1075
49,1124
49.08,1161
49.16,1443
49.24,2938
49.32,4459
49.4,2179
49.48,1260
49.56,1198
49.64,1121
49.72,1109
49.8,1009
49.88,1057
49.96,1028
50.04,1050
50.12,1058
50.2,1080
50.28,1113
50.36,1134
50.44,1270
50.52,1623
50.6,3884
50.68,7347
50.76,3436
50.84,1527
50.92,1292
51,1096
51.08,1100
51.16,984
51.24,984
51.32,1019
51.4,1028
51.48,1032
51.56,1001
51.64,1012
51.72,1050
51.8,990
51.88,996
51.96,1015
52.04,1067
52.12,1084
52.2,1570
52.28,1953
52.36,1316
52.44,1105
52.52,1303
52.6,1084
52.68,991
52.76,1055
52.84,1150
52.92,1082
53,988
53.08,1050
53.16,972
53.24,1017
53.32,993
53.4,957
53.48,1030
53.56,940
53.64,1099
53.72,1503
53.8,2716
53.88,2352
53.96,1243
54.04,1092
54.12,1047
54.2,1066
54.28,1153
54.36,1299
54.44,1377
54.52,1073
54.6,1034
54.68,992
54.76,999
54.84,1005
54.92,997
55,995
55.08,953
55.16,1024
55.24,994
55.32,1045
55.4,1133
55.48,1200
55.56,1450
55.64,1479
55.72,1162
55.8,1249
55.88,1729
55.96,1768
56.04,1173
56.12,1029
56.2,1024
56.28,965
56.36,994
56.44,948
56.52,1024
56.6,1052
56.68,1018
56.76,989
56.84,987
56.92,1049
57,1017
57.08,945
57.16,969
57.24,979
57.32,987
57.4,955
57.48,968
57.56,977
57.64,932
57.72,937
57.8,968
57.88,959
57.96,959
58.04,961
58.12,1037
58.2,1101
58.28,1354
58.36,1758
58.44,1647
58.52,1254
58.6,1219
58.68,1389
58.76,2428
58.84,5512
58.92,5341
59,2043
59.08,1323
59.16,1124
59.24,1081
59.32,1087
59.4,1010
59.48,952
59.56,985
59.64,945
59.72,918
59.8,993
59.88,946
59.96,983
60.04,970
60.12,985
60.2,983
60.28,913
60.36,973
60.44,960
60.52,919
60.6,938
60.68,992
60.76,973
60.84,1012
60.92,994
61,1033
61.08,1156
61.16,1520
61.24,2971
61.32,3659
61.4,1670
61.48,1140
61.56,960
61.64,963
61.72,1022
61.8,992
61.88,966
61.96,933
62.04,971
62.12,943
62.2,944
62.28,974
62.36,1027
62.44,1094
62.52,1573
62.6,2853
62.68,2654
62.76,1410
62.84,1310
62.92,1211
63,1023
63.08,958
63.16,988
63.24,955
63.32,947
63.4,906
63.48,952
63.56,917
63.64,964
63.72,908
63.8,913
63.88,967
63.96,888
64.04,964
64.12,988
64.2,1052
64.28,1080
64.36,937
64.44,942
64.52,927
64.6,959
64.68,916
64.76,937
64.84,1003
64.92,942
65,946
65.08,916
65.16,946
65.24,885
65.32,1030
65.4,1084
65.48,990
65.56,967
65.64,915
65.72,984
65.8,1071
65.88,1305
65.96,1360
66.04,1003
66.12,984
66.2,961
66.28,955
66.36,915
66.44,918
66.52,955
66.6,920
66.68,902
66.76,885
66.84,936
66.92,977
67,921
67.08,1019
67.16,1211
67.24,1641
67.32,1615
67.4,1064
67.48,997
67.56,975
67.64,964
67.72,942
67.8,959
67.88,937
67.96,1042
68.04,996
68.12,1059
68.2,1192
68.28,1302
68.36,1424
68.44,1054
68.52,960
68.6,909
68.68,928
68.76,925
68.84,909
68.92,925
69,919
69.08,884
69.16,966
69.24,923
69.32,895
69.4,1066
69.48,1320
69.56,1246
69.64,1035
69.72,915
69.8,929
69.88,889
69.96,910
70.04,910
70.12,906
70.2,948
70.28,917
70.36,880
70.44,975
70.52,920
70.6,887
70.68,874
70.76,984
70.84,934
70.92,913
71,952
71.08,927
71.16,968
71.24,1117
71.32,1106
71.4,988
71.48,969
71.56,912
71.64,931
71.72,917
71.8,885
71.88,948
71.96,882
72.04,914
72.12,936
72.2,1102
72.28,1270
72.36,1217
72.44,1001
72.52,935
72.6,911
72.68,921
72.76,929
72.84,930
72.92,894
73,881
73.08,949
73.16,949
73.24,1015
73.32,1011
73.4,1098
73.48,1268
73.56,1090
73.64,947
73.72,862
73.8,906
73.88,931
73.96,964
74.04,906
74.12,885
74.2,919
74.28,913
74.36,925
74.44,894
74.52,970
74.6,1100
74.68,1321
74.76,1272
74.84,1222
74.92,1275
75,1048
75.08,1027
75.16,1011
75.24,960
75.32,999
75.4,915
75.48,965
75.56,932
75.64,949
75.72,919
75.8,1015
75.88,1073
75.96,1197
76.04,1042
76.12,956
76.2,951
76.28,968
76.36,981
76.44,905
76.52,1005
76.6,1241
76.68,1321
76.76,1051
76.84,985
76.92,905
77,926
77.08,864
77.16,939
77.24,983
77.32,1043
77.4,1036
77.48,999
77.56,912
77.64,959
77.72,987
77.8,998
77.88,948
77.96,868
78.04,859
78.12,924
78.2,928
78.28,854
78.36,938
78.44,906
78.52,916
78.6,919
78.68,935
78.76,924
78.84,907
78.92,902
79,934
79.08,920
79.16,1023
79.24,987
79.32,986
79.4,861
79.48,929
79.56,895
79.64,916
79.72,1092
79.8,1230
79.88,1324
79.96,1048
80.04,973
80.12,1033
80.2,1250
80.28,1555
80.36,1240
80.44,1008
80.52,971
80.6,856
80.68,948
80.76,905
80.84,907
80.92,903
81,856
81.08,849
81.16,888
81.24,884
81.32,849
81.4,919
81.48,919
81.56,872
81.64,897
81.72,909
81.8,897
81.88,929
81.96,926
82.04,964
82.12,984
82.2,1076
82.28,1409
82.36,2115
82.44,2301
82.52,1748
82.6,1393
82.68,1062
82.76,935
82.84,932
82.92,888
83,989
83.08,958
83.16,907
83.24,962
83.32,935
83.4,1009
83.48,1272
83.56,1644
83.64,1602
83.72,1177
83.8,1062
83.88,1004
83.96,914
84.04,913
84.12,911
84.2,962
84.28,939
84.36,885
84.44,895
84.52,827
84.6,890
84.68,827
84.76,850
84.84,884
84.92,850
85,896
85.08,912
85.16,863
85.24,1042
85.32,1090
85.4,959
85.48,950
85.56,864
85.64,928
85.72,894
85.8,901
85.88,932
85.96,1051
86.04,1222
86.12,1247
86.2,1048
86.28,988
86.36,928
86.44,1023
86.52,1110
86.6,1328
86.68,1534
86.76,1624
86.84,1246
86.92,988
87,971
87.08,873
87.16,877
87.24,897
87.32,866
87.4,864
87.48,878
87.56,853
87.64,851
87.72,862
87.8,844
87.88,882
87.96,872
88.04,919
88.12,906
88.2,852
88.28,836
88.36,857
88.44,906
88.52,981
88.6,1035
88.68,1054
88.76,958
88.84,873
88.92,883
89,855
89.08,892
89.16,984
89.24,1075
89.32,1012
89.4,882
89.48,893
89.56,884
89.64,841
89.72,911
89.8,991
89.88,1113
89.96,1030
90.04,933
90.12,838
90.2,916
90.28,827
90.36,892
90.44,845
90.52,846
90.6,828
90.68,868
90.76,805
90.84,883
90.92,824
91,828
91.08,811
91.16,795
91.24,861
91.32,840
91.4,871
91.48,928
91.56,879
91.64,870
91.72,817
91.8,858
91.88,889
91.96,833
92.04,822
92.12,880
92.2,792
92.28,881
92.36,848
92.44,855
92.52,856
92.6,795
92.68,817
92.76,813
92.84,830
92.92,835
93,842
93.08,891
93.16,889
93.24,874
93.32,903
93.4,986
93.48,1182
93.56,1558
93.64,1426
93.72,1182
93.8,995
93.88,933
93.96,829
94.04,858
94.12,855
94.2,859
94.28,799
94.36,839
94.44,805
94.52,838
94.6,855
94.68,821
94.76,848
94.84,861
94.92,893
95,885
95.08,837
95.16,833
95.24,833
95.32,863
95.4,801
95.48,829
95.56,864
95.64,852
95.72,780
95.8,779
95.88,869
95.96,808
96.04,844
96.12,782
96.2,848
96.28,803
96.36,835
96.44,855
96.52,872
96.6,1043
96.68,1097
96.76,1120
96.84,1012
96.92,913
97,859
97.08,862
97.16,838
97.24,810
97.32,892
97.4,905
97.48,932
97.56,969
97.64,1000
97.72,965
97.8,1075
97.88,1016
97.96,902
98.04,879
98.12,825
98.2,817
98.28,857
98.36,845
98.44,787
98.52,792
98.6,815
98.68,848
98.76,899
98.84,828
98.92,821
99,826
99.08,821
99.16,807
99.24,850
99.32,850
99.4,805
99.48,813
99.56,812
99.64,770
99.72,854
99.8,861
99.88,844
99.96,861
100.04,813
100.12,852
100.2,955
100.28,1129
100.36,1179
100.44,984
100.52,886
100.6,847
100.68,808
100.76,761
100.84,805
100.92,812
101,778
101.08,765
101.16,823
101.24,792
101.32,799
101.4,868
101.48,859
101.56,927
101.64,946
101.72,927
101.8,900
101.88,881
101.96,806
102.04,825
102.12,787
102.2,808
102.28,883
102.36,890
102.44,1018
102.52,964
102.6,854
102.68,862
102.76,813
102.84,806
102.92,778
103,804
103.08,739
103.16,788
103.24,770
103.32,806
103.4,748
103.48,746
103.56,773
103.64,813
103.72,829
103.8,797
103.88,767
103.96,789
104.04,798
104.12,843
104.2,838
104.28,843
104.36,846
104.44,723
104.52,805
104.6,787
104.68,708
104.76,724
104.84,787
104.92,795
105,817
105.08,798
105.16,813
105.24,741
105.32,730
105.4,812
105.48,798
105.56,800
105.64,842
105.72,787
105.8,762
105.88,752
105.96,730
106.04,786
106.12,789
106.2,870
106.28,927
106.36,885
106.44,817
106.52,792
106.6,872
106.68,970
106.76,1083
106.84,1066
106.92,855
107,863
107.08,816
107.16,782
107.24,769
107.32,777
107.4,803
107.48,753
107.56,779
107.64,775
107.72,825
107.8,787
107.88,832
107.96,859
108.04,938
108.12,933
108.2,870
108.28,848
108.36,795
108.44,807
108.52,760
108.6,781
108.68,805
108.76,789
108.84,804
108.92,847
109,830
109.08,834
109.16,793
109.24,786
109.32,766
109.4,734
109.48,800
109.56,807
109.64,765
109.72,804
109.8,761
109.88,766
109.96,746
110.04,757
110.12,777
110.2,767
110.28,797
110.36,756
110.44,768
110.52,746
110.6,734
110.68,772
110.76,680
110.84,700
110.92,776
111,701
111.08,736
111.16,714
111.24,702
111.32,718
111.4,750
111.48,721
111.56,688
111.64,722
111.72,702
111.8,738
111.88,667
111.96,716
112.04,741
112.12,718
112.2,725
112.28,674
112.36,715
112.44,717
112.52,722
112.6,725
112.68,691
112.76,721
112.84,726
112.92,770
113,750
113.08,820
113.16,794
113.24,779
113.32,711
113.4,815
113.48,787
113.56,848
113.64,797
113.72,761
113.8,713
113.88,752
113.96,666
114.04,732
114.12,750
114.2,684
114.28,701
114.36,793
114.44,762
114.52,780
114.6,700
114.68,722
114.76,777
114.84,754
114.92,725
115,757
115.08,683
115.16,694
115.24,687
115.32,716
115.4,698
115.48,689
115.56,671
115.64,712
115.72,684
115.8,673
115.88,661
115.96,702
116.04,684
116.12,739
116.2,701
116.28,683
116.36,686
116.44,694
116.52,697
116.6,700
116.68,689
116.76,671
116.84,665
116.92,707
117,688
117.08,711
117.16,667
117.24,703
117.32,675
117.4,686
117.48,700
117.56,700
117.64,764
117.72,754
117.8,725
117.88,675
117.96,643
118.04,699
118.12,642
118.2,627
118.28,670
118.36,705
118.44,649
118.52,641
118.6,688
118.68,717
118.76,697
118.84,720
118.92,650
119,702
119.08,707
119.16,669
119.24,661
119.32,736
119.4,683
119.48,667
119.56,637
119.64,635
119.72,699
119.8,667
119.88,668
119.96,678
120,671