File: data/xrd_icdd_PDF/00-057-0164 (PD3).csv
5,462
5.1,420
5.2,449
5.3,484
5.4,416
5.5,471
5.6,449
5.7,441
5.8,420
5.9,428
6,428
6.1,404
6.2,412
6.3,400
6.4,437
6.5,384
6.6,384
6.7,372
6.8,400
6.9,454
7,388
7.1,384
7.2,365
7.3,369
7.4,400
7.5,396
7.6,369
7.7,376
7.8,369
7.9,376
8,384
8.1,380
8.2,361
8.3,353
8.4,372
8.5,369
8.6,392
8.7,357
8.8,365
8.9,353
9,361
9.1,357
9.2,388
9.3,361
9.4,353
9.5,376
9.6,357
9.7,380
9.8,346
9.9,353
10,342
10.1,331
10.2,365
10.3,357
10.4,350
10.5,310
10.6,320
10.7,317
10.8,372
10.9,388
11,357
11.1,353
11.2,353
11.3,324
11.4,306
11.5,346
11.6,303
11.7,339
11.8,350
11.9,353
12,331
12.1,324
12.2,317
12.3,320
12.4,346
12.5,331
12.6,331
12.7,339
12.8,342
12.9,339
13,342
13.1,299
13.2,324
13.3,289
13.4,331
13.5,306
13.6,310
13.7,324
13.8,335
13.9,328
14,303
14.1,313
14.2,279
14.3,313
14.4,299
14.5,296
14.6,328
14.7,320
14.8,320
14.9,313
15,299
15.1,292
15.2,310
15.3,296
15.4,289
15.5,299
15.6,286
15.7,313
15.8,299
15.9,306
16,286
16.1,276
16.2,292
16.3,296
16.4,259
16.5,279
16.6,353
16.7,433
16.8,655
16.9,1354
17,795
17.1,303
17.2,317
17.3,310
17.4,282
17.5,286
17.6,269
17.7,292
17.8,266
17.9,266
18,286
18.1,269
18.2,266
18.3,306
18.4,286
18.5,365
18.6,480
18.7,812
18.8,2025
18.9,388
19,292
19.1,313
19.2,286
19.3,286
19.4,279
19.5,299
19.6,303
19.7,279
19.8,256
19.9,313
20,303
20.1,286
20.2,292
20.3,286
20.4,388
20.5,581
20.6,1267
20.7,3329
20.8,4238
20.9,437
21,339
21.1,289
21.2,262
21.3,262
21.4,292
21.5,256
21.6,256
21.7,246
21.8,253
21.9,286
22,266
22.1,234
22.2,253
22.3,237
22.4,243
22.5,256
22.6,286
22.7,408
22.8,620
22.9,1369
23,357
23.1,289
23.2,243
23.3,262
23.4,234
23.5,246
23.6,250
23.7,231
23.8,231
23.9,210
24,204
24.1,231
24.2,246
24.3,266
24.4,250
24.5,228
24.6,210
24.7,231
24.8,240
24.9,250
25,266
25.1,243
25.2,234
25.3,262
25.4,276
25.5,240
25.6,256
25.7,231
25.8,234
25.9,240
26,253
26.1,234
26.2,292
26.3,279
26.4,272
26.5,292
26.6,320
26.7,384
26.8,801
26.9,1892
27,3505
27.1,745
27.2,392
27.3,335
27.4,380
27.5,586
27.6,1459
27.7,5112
27.8,4489
27.9,864
28,1513
28.1,4529
28.2,6053
28.3,894
28.4,493
28.5,392
28.6,408
28.7,458
28.8,692
28.9,1576
29,4529
29.1,9235
29.2,1927
29.3,562
29.4,369
29.5,272
29.6,286
29.7,286
29.8,262
29.9,240
30,243
30.1,243
30.2,253
30.3,222
30.4,207
30.5,228
30.6,222
30.7,216
30.8,219
30.9,219
31,216
31.1,222
31.2,228
31.3,207
31.4,207
31.5,216
31.6,219
31.7,228
31.8,180
31.9,219
32,199
32.1,207
32.2,199
32.3,190
32.4,222
32.5,182
32.6,202
32.7,182
32.8,174
32.9,207
33,202
33.1,216
33.2,228
33.3,196
33.4,199
33.5,199
33.6,202
33.7,204
33.8,231
33.9,240
34,350
34.1,640
34.2,2034
34.3,5550
34.4,2450
34.5,376
34.6,299
34.7,231
34.8,219
34.9,216
35,225
35.1,216
35.2,174
35.3,225
35.4,207
35.5,225
35.6,256
35.7,262
35.8,441
35.9,1225
36,3709
36.1,2153
36.2,428
36.3,269
36.4,234
36.5,196
36.6,240
36.7,303
36.8,276
36.9,207
37,196
37.1,169
37.2,202
37.3,159
37.4,182
37.5,177
37.6,202
37.7,269
37.8,256
37.9,188
38,188
38.1,213
38.2,240
38.3,207
38.4,164
38.5,202
38.6,219
38.7,353
38.8,888
38.9,635
39,289
39.1,174
39.2,185
39.3,166
39.4,156
39.5,188
39.6,188
39.7,149
39.8,161
39.9,166
40,166
40.1,159
40.2,182
40.3,169
40.4,159
40.5,159
40.6,164
40.7,172
40.8,174
40.9,272
41,538
41.1,342
41.2,193
41.3,180
41.4,196
41.5,190
41.6,172
41.7,210
41.8,210
41.9,234
42,259
42.1,462
42.2,1253
42.3,3434
42.4,3192
42.5,1414
42.6,708
42.7,412
42.8,228
42.9,193
43,188
43.1,180
43.2,202
43.3,185
43.4,177
43.5,188
43.6,185
43.7,231
43.8,441
43.9,420
44,331
44.1,164
44.2,139
44.3,177
44.4,137
44.5,146
44.6,166
44.7,169
44.8,219
44.9,286
45,1037
45.1,1109
45.2,790
45.3,202
45.4,174
45.5,199
45.6,174
45.7,185
45.8,154
45.9,156
46,182
46.1,193
46.2,188
46.3,213
46.4,313
46.5,524
46.6,1815
46.7,2938
46.8,4462
46.9,1722
47,428
47.1,279
47.2,199
47.3,196
47.4,188
47.5,156
47.6,169
47.7,185
47.8,180
47.9,149
48,159
48.1,169
48.2,174
48.3,144
48.4,169
48.5,166
48.6,166
48.7,156
48.8,151
48.9,144
49,156
49.1,159
49.2,149
49.3,177
49.4,182
49.5,253
49.6,266
49.7,234
49.8,185
49.9,164
50,177
50.1,182
50.2,182
50.3,196
50.4,190
50.5,296
50.6,480
50.7,1116
50.8,1576
50.9,3745
51,1772
51.1,671
51.2,299
51.3,240
51.4,193
51.5,180
51.6,216
51.7,202
51.8,243
51.9,282
52,471
52.1,1498
52.2,1399
52.3,1459
52.4,529
52.5,493
52.6,396
52.7,331
52.8,576
52.9,357
53,246
53.1,182
53.2,199
53.3,185
53.4,172
53.5,172
53.6,180
53.7,174
53.8,185
53.9,188
54,207
54.1,210
54.2,299
54.3,571
54.4,524
54.5,586
54.6,388
54.7,773
54.8,3516
54.9,1303
55,1436
55.1,279
55.2,262
55.3,225
55.4,299
55.5,650
55.6,762
55.7,1246
55.8,686
55.9,346
56,237
56.1,202
56.2,193
56.3,151
56.4,216
56.5,159
56.6,182
56.7,188
56.8,172
56.9,159
57,204
57.1,222
57.2,388
57.3,437
57.4,502
57.5,303
57.6,188
57.7,196
57.8,210
57.9,342
58,586
58.1,445
58.2,458
58.3,357
58.4,289
58.5,313
58.6,408
58.7,795
58.8,2134
58.9,1018
59,1170
59.1,342
59.2,262
59.3,246
59.4,216
59.5,219
59.6,296
59.7,502
59.8,1082
59.9,1384
60,2381
60.1,1849
60.2,1204
60.3,1722
60.4,1482
60.5,1391
60.6,829
60.7,1772
60.8,729
60.9,864
61,286
61.1,207
61.2,207
61.3,193
61.4,207
61.5,166
61.6,193
61.7,182
61.8,172
61.9,190
62,159
62.1,180
62.2,151
62.3,177
62.4,202
62.5,164
62.6,159
62.7,156
62.8,196
62.9,193
63,310
63.1,262
63.2,276
63.3,185
63.4,202
63.5,188
63.6,154
63.7,180
63.8,154
63.9,188
64,246
64.1,216
64.2,243
64.3,269
64.4,392
64.5,949
64.6,847
64.7,801
64.8,433
64.9,324
65,534
65.1,1624
65.2,1211
65.3,1218
65.4,1318
65.5,1936
65.6,1122
65.7,1063
65.8,376
65.9,246
66,228
66.1,256
66.2,246
66.3,335
66.4,967
66.5,1498
66.6,762
66.7,713
66.8,272
66.9,210
67,243
67.1,605
67.2,610
67.3,462
67.4,353
67.5,182
67.6,182
67.7,169
67.8,172
67.9,185
68,213
68.1,376
68.2,246
68.3,259
68.4,207
68.5,199
68.6,196
68.7,188
68.8,296
68.9,331
69,240
69.1,219
69.2,188
69.3,199
69.4,222
69.5,331
69.6,835
69.7,571
69.8,581
69.9,445
70,289
70.1,396
70.2,581
70.3,353
70.4,384
70.5,253
70.6,228
70.7,207
70.8,222
70.9,266
71,320
71.1,615
71.2,1303
71.3,586
71.4,773
71.5,454
71.6,762
71.7,317
71.8,502
71.9,286
72,286
72.1,339
72.2,818
72.3,784
72.4,1421
72.5,835
72.6,818
72.7,502
72.8,372
72.9,342
73,454
73.1,1005
73.2,1391
73.3,1980
73.4,1498
73.5,1253
73.6,660
73.7,372
73.8,253
73.9,234
74,231
74.1,213
74.2,210
74.3,228
74.4,286
74.5,225
74.6,240
74.7,199
74.8,213
74.9,222
75,279
75.1,317
75.2,269
75.3,272
75.4,237
75.5,193
75.6,210
75.7,234
75.8,266
75.9,376
76,562
76.1,858
76.2,666
76.3,801
76.4,1529
76.5,986
76.6,767
76.7,773
76.8,320
76.9,231
77,231
77.1,222
77.2,246
77.3,210
77.4,228
77.5,331
77.6,384
77.7,272
77.8,335
77.9,276
78,243
78.1,213
78.2,237
78.3,216
78.4,259
78.5,266
78.6,231
78.7,289
78.8,256
78.9,225
79,243
79.1,225
79.2,234
79.3,243
79.4,253
79.5,256
79.6,346
79.7,369
79.8,449
79.9,552
80,955
80.1,1482
80.2,795
80.3,973
80.4,734
80.5,445
80.6,458
80.7,416
80.8,615
80.9,1183
81,853
81.1,630
81.2,790
81.3,372
81.4,296
81.5,262
81.6,269
81.7,250
81.8,310
81.9,433
82,713
82.1,416
82.2,433
82.3,467
82.4,272
82.5,237
82.6,262
82.7,219
82.8,262
82.9,262
83,246
83.1,282
83.2,262
83.3,262
83.4,286
83.5,262
83.6,253
83.7,269
83.8,282
83.9,296
84,475
84.1,576
84.2,412
84.3,756
84.4,404
84.5,384
84.6,412
84.7,433
84.8,335
84.9,350
85,372
85.1,250
85.2,234
85.3,256
85.4,276
85.5,458
85.6,339
85.7,388
85.8,497
85.9,320
86,320
86.1,324
86.2,262
86.3,256
86.4,225
86.5,225
86.6,250
86.7,246
86.8,231
86.9,237
87,243
87.1,246
87.2,231
87.3,234
87.4,310
87.5,328
87.6,433
87.7,660
87.8,511
87.9,357
88,538
88.1,380
88.2,538
88.3,1156
88.4,876
88.5,870
88.6,1498
88.7,734
88.8,650
88.9,615
89,369
89.1,320
89.2,317
89.3,286
89.4,253
89.5,299
89.6,317
89.7,262
89.8,310
89.9,313
90,299
90.1,484
90.2,590
90.3,331
90.4,380
90.5,428
90.6,259
90.7,253
90.8,246
90.9,234
91,266
91.1,243
91.2,396
91.3,493
91.4,342
91.5,320
91.6,458
91.7,557
91.8,620
91.9,365
92,562
92.1,853
92.2,762
92.3,586
92.4,1024
92.5,1239
92.6,610
92.7,745
92.8,724
92.9,520
93,520
93.1,328
93.2,350
93.3,357
93.4,292
93.5,292
93.6,282
93.7,253
93.8,269
93.9,416
94,246
94.1,289
94.2,350
94.3,437
94.4,320
94.5,266
94.6,372
94.7,303
94.8,286
94.9,324
95,433
95.1,686
95.2,745
95.3,681
95.4,745
95.5,847
95.6,552
95.7,416
95.8,441
95.9,441
96,296
96.1,266
96.2,339
96.3,346
96.4,357
96.5,250
96.6,331
96.7,441
96.8,276
96.9,262
97,376
97.1,296
97.2,262
97.3,272
97.4,279
97.5,219
97.6,292
97.7,331
97.8,437
97.9,576
98,350
98.1,306
98.2,384
98.3,317
98.4,292
98.5,365
98.6,600
98.7,1089
98.8,458
98.9,428
99,635
99.1,392
99.2,250
99.3,256
99.4,253
99.5,240
99.6,328
99.7,433
99.8,279
99.9,306
100,384
100.1,433
100.2,286
100.3,272
100.4,306
100.5,320
100.6,262
100.7,262
100.8,396
100.9,342
101,433
101.1,590
101.2,369
101.3,276
101.4,408
101.5,353
101.6,458
101.7,511
101.8,306
101.9,299
102,384
102.1,357
102.2,253
102.3,243
102.4,231
102.5,320
102.6,640
102.7,380
102.8,353
102.9,605
103,666
103.1,376
103.2,353
103.3,520
103.4,548
103.5,713
103.6,471
103.7,488
103.8,812
103.9,762
104,475
104.1,441
104.2,502
104.3,357
104.4,306
104.5,292
104.6,437
104.7,282
104.8,282
104.9,299
105,339
105.1,250
105.2,243
105.3,243
105.4,213
105.5,222
105.6,199
105.7,213
105.8,213
105.9,196
106,228
106.1,250
106.2,396
106.3,404
106.4,286
106.5,286
106.6,384
106.7,346
106.8,286
106.9,449
107,625
107.1,388
107.2,339
107.3,420
107.4,571
107.5,320
107.6,253
107.7,286
107.8,269
107.9,213
108,207
108.1,228
108.2,253
108.3,289
108.4,243
108.5,237
108.6,237
108.7,269
108.8,286
108.9,259
109,279
109.1,369
109.2,454
109.3,357
109.4,384
109.5,331
109.6,380
109.7,335
109.8,376
109.9,243
110,256
110.1,276
110.2,317
110.3,292
110.4,266
110.5,282
110.6,412
110.7,650
110.8,400
110.9,317
111,396
111.1,620
111.2,795
111.3,437
111.4,437
111.5,640
111.6,595
111.7,384
111.8,416
111.9,454
112,303
112.1,234
112.2,292
112.3,253
112.4,262
112.5,240
112.6,243
112.7,266
112.8,210
112.9,250
113,253
113.1,228
113.2,256
113.3,346
113.4,502
113.5,475
113.6,328
113.7,392
113.8,552
113.9,562
114,437
114.1,506
114.2,767
114.3,610
114.4,529
114.5,520
114.6,520
114.7,520
114.8,420
114.9,428
115,335
115.1,282
115.2,246
115.3,225
115.4,243
115.5,225
115.6,225
115.7,225
115.8,210
115.9,213
116,237
116.1,240
116.2,234
116.3,331
116.4,253
116.5,231
116.6,228
116.7,272
116.8,296
116.9,313
117,372
117.1,317
117.2,372
117.3,493
117.4,506
117.5,376
117.6,335
117.7,361
117.8,445
117.9,449
118,412
118.1,324
118.2,292
118.3,372
118.4,420
118.5,506
118.6,676
118.7,686
118.8,467
118.9,488
119,605
119.1,571
119.2,437
119.3,331
119.4,365
119.5,328
119.6,282
119.7,259
119.8,243
119.9,250
120,246
120.1,210
120.2,204
120.3,240
120.4,234
120.5,253
120.6,240
120.7,306
120.8,396
120.9,515
121,376
121.1,292
121.2,317
121.3,372
121.4,357
121.5,372
121.6,384
121.7,369
121.8,357
121.9,331
122,317
122.1,350
122.2,350
122.3,392
122.4,328
122.5,266
122.6,269
122.7,276
122.8,276
122.9,286
123,292
123.1,339
123.2,369
123.3,331
123.4,279
123.5,272
123.6,286
123.7,324
123.8,279
123.9,253
124,299
124.1,282
124.2,296
124.3,365
124.4,380
124.5,346
124.6,328
124.7,306
124.8,303
124.9,331
125,361
125.1,299
125.2,310
125.3,331
125.4,331
125.5,346
125.6,458
125.7,650
125.8,480
125.9,357
126,335
126.1,376
126.2,471
126.3,441
126.4,396
126.5,437
126.6,660
126.7,581
126.8,480
126.9,384
127,353
127.1,400
127.2,566
127.3,467
127.4,484
127.5,600
127.6,576
127.7,437
127.8,369
127.9,350
128,346
128.1,480
128.2,445
128.3,353
128.4,384
128.5,437
128.6,600
128.7,552
128.8,454
128.9,458
129,511
129.1,471
129.2,506
129.3,454
129.4,361
129.5,353
129.6,384
129.7,353
129.8,339
129.9,306
130,289
130.1,317
130.2,342
130.3,404
130.4,511
130.5,590
130.6,424
130.7,369
130.8,369
130.9,416
131,437
131.1,524
131.2,445
131.3,467
131.4,462
131.5,538
131.6,724
131.7,713
131.8,605
131.9,566
132,724
132.1,992
132.2,1116
132.3,1163
132.4,812
132.5,655
132.6,557
132.7,655
132.8,740
132.9,864
133,930
133.1,841
133.2,552
133.3,484
133.4,484
133.5,566
133.6,645
133.7,630
133.8,576
133.9,571
134,650
134.1,635
134.2,686
134.3,586
134.4,529
134.5,524
134.6,581
134.7,640
134.8,625
134.9,595
135,534
135.1,449
135.2,480
135.3,520
135.4,581
135.5,645
135.6,751
135.7,562
135.8,557
135.9,576
136,767
136.1,812
136.2,876
136.3,1030
136.4,942
136.5,686
136.6,630
136.7,676
136.8,655
136.9,610
137,660
137.1,713
137.2,630
137.3,650
137.4,645
137.5,724
137.6,697
137.7,571
137.8,605
137.9,671
138,853
138.1,992
138.2,835
138.3,676
138.4,615
138.5,520
138.6,529
138.7,635
138.8,650
138.9,718
139,740
139.1,635
139.2,511
139.3,480
139.4,400
139.5,361
139.6,412
139.7,471
139.8,511
139.9,471
140,388