File: data/xrd_icdd_PDF/00-067-0216 (PD3).csv
5.0167,4629
5.1157,4529
5.2147,4492
5.3137,4237
5.4127,4121
5.5117,4146
5.6107,4092
5.7097,3855
5.8087,3810
5.9077,3800
6.0067,3722
6.1057,3732
6.2047,3615
6.3037,3577
6.4027,3472
6.5017,3446
6.6007,3498
6.6997,3399
6.7987,3387
6.8977,3268
6.9967,3199
7.0957,3127
7.1947,3194
7.2937,3184
7.3927,3054
7.4917,3024
7.5907,2912
7.6897,2983
7.7887,2904
7.8877,2847
7.9867,2800
8.0857,2864
8.1847,2693
8.2837,2771
8.3827,2777
8.4817,2682
8.5807,2616
8.6797,2591
8.7787,2604
8.8777,2547
8.9767,2605
9.0757,2598
9.1747,2556
9.2737,2529
9.3727,2529
9.4717,2451
9.5707,2518
9.6697,2427
9.7687,2414
9.8677,2448
9.9667,2408
10.0657,2337
10.1647,2385
10.2637,2455
10.3627,2243
10.4617,2313
10.5607,2310
10.6597,2241
10.7587,2275
10.8577,2311
10.9567,2247
11.0557,2200
11.1547,2206
11.2537,2194
11.3527,2230
11.4517,2246
11.5507,2252
11.6497,2153
11.7487,2215
11.8477,2175
11.9467,2118
12.0457,2153
12.1447,2072
12.2437,2144
12.3427,2186
12.4417,2087
12.5407,2136
12.6397,2075
12.7387,2089
12.8377,1985
12.9367,1993
13.0357,2040
13.1347,2095
13.2337,2024
13.3327,2016
13.4317,1965
13.5307,1981
13.6297,2093
13.7287,1993
13.8277,1955
13.9267,1981
14.0257,1971
14.1247,1944
14.2237,1941
14.3227,1933
14.4217,1904
14.5207,1924
14.6197,1834
14.7187,1921
14.8177,1827
14.9167,1955
15.0157,1893
15.1147,1880
15.2137,1808
15.3127,1833
15.4117,1806
15.5107,1770
15.6097,1928
15.7087,1859
15.8077,1875
15.9067,1898
16.0057,1798
16.1047,1841
16.2037,1863
16.3027,1831
16.4017,1798
16.5007,1773
16.5997,1827
16.6987,1797
16.7977,1801
16.8967,1820
16.9957,1779
17.0947,1730
17.1937,1776
17.2927,1761
17.3917,1776
17.4907,1742
17.5897,1775
17.6887,1799
17.7877,1759
17.8867,1801
17.9857,1770
18.0847,1742
18.1837,1732
18.2827,1779
18.3817,1713
18.4807,1797
18.5797,1731
18.6787,1732
18.7777,1769
18.8767,1856
18.9757,1913
19.0747,2406
19.1737,3587
19.2727,3265
19.3717,2104
19.4707,1879
19.5697,1798
19.6687,1761
19.7677,1806
19.8667,1682
19.9657,1697
20.0647,1743
20.1637,1706
20.2627,1750
20.3617,1694
20.4607,1683
20.5597,1636
20.6587,1745
20.7577,1693
20.8567,1698
20.9557,1722
21.0547,1665
21.1537,1664
21.2527,1700
21.3517,1653
21.4507,1722
21.5497,1677
21.6487,1732
21.7477,1659
21.8467,1694
21.9457,1699
22.0447,1680
22.1437,1693
22.2427,1712
22.3417,1737
22.4407,1667
22.5397,1653
22.6387,1683
22.7377,1674
22.8367,1749
22.9357,1733
23.0347,1652
23.1337,1741
23.2327,1718
23.3317,1686
23.4307,1713
23.5297,1700
23.6287,1702
23.7277,1746
23.8267,1706
23.9257,1674
24.0247,1718
24.1237,1746
24.2227,1690
24.3217,1712
24.4207,1758
24.5197,1779
24.6187,1694
24.7177,1686
24.8167,1716
24.9157,1732
25.0147,1679
25.1137,1724
25.2127,1761
25.3117,1722
25.4107,1803
25.5097,1712
25.6087,1655
25.7077,1675
25.8067,1765
25.9057,1775
26.0047,1796
26.1037,1710
26.2027,1683
26.3017,1757
26.4007,1705
26.4997,1737
26.5987,1776
26.6977,1703
26.7967,1678
26.8957,1722
26.9947,1728
27.0937,1736
27.1927,1754
27.2917,1697
27.3907,1749
27.4897,1770
27.5887,1750
27.6877,1778
27.7867,1795
27.8857,1847
27.9847,1824
28.0837,1835
28.1827,1867
28.2817,1864
28.3807,1912
28.4797,1992
28.5787,1951
28.6777,2004
28.7767,2028
28.8757,2158
28.9747,2302
29.0737,2505
29.1727,3067
29.2717,4302
29.3707,8932
29.4697,16233
29.5687,9297
29.6677,3808
29.7667,2690
29.8657,2476
29.9647,2382
30.0637,2388
30.1627,2089
30.2617,1980
30.3607,1860
30.4597,1882
30.5587,1869
30.6577,1872
30.7567,1846
30.8557,1870
30.9547,1862
31.0537,2085
31.1527,3228
31.2517,4493
31.3507,2677
31.4497,2117
31.5487,1935
31.6477,1810
31.7467,1838
31.8457,1873
31.9447,1851
32.0437,1809
32.1427,1830
32.2417,1874
32.3407,1984
32.4397,1918
32.5387,1835
32.6377,1848
32.7367,1756
32.8357,1839
32.9347,1884
33.0337,1868
33.1327,2176
33.2317,2056
33.3307,1923
33.4297,1889
33.5287,1876
33.6277,1898
33.7267,1831
33.8257,1778
33.9247,1806
34.0237,1793
34.1227,1751
34.2217,1737
34.3207,1783
34.4197,1791
34.5187,1848
34.6177,1822
34.7167,1812
34.8157,1857
34.9147,1824
35.0137,1857
35.1127,1841
35.2117,1928
35.3107,2068
35.4097,2715
35.5087,4453
35.6077,3970
35.7067,2379
35.8057,2057
35.9047,1835
36.0037,1877
36.1027,1961
36.2017,1910
36.3007,1908
36.3997,1859
36.4987,1803
36.5977,1843
36.6967,1861
36.7957,1888
36.8947,1816
36.9937,1829
37.0927,1909
37.1917,1856
37.2907,1890
37.3897,1928
37.4887,1840
37.5877,1821
37.6867,1879
37.7857,1823
37.8847,1936
37.9837,1842
38.0827,1838
38.1817,1960
38.2807,1912
38.3797,1892
38.4787,1892
38.5777,1857
38.6767,1953
38.7757,1937
38.8747,1985
38.9737,2028
39.0727,1962
39.1717,1916
39.2707,1944
39.3697,1905
39.4687,1924
39.5677,1912
39.6667,1916
39.7657,1976
39.8647,1932
39.9637,1937
40.0627,1940
40.1617,1988
40.2607,2195
40.3597,2609
40.4587,2302
40.5577,2552
40.6567,3687
40.7557,3720
40.8547,2570
40.9537,2173
41.0527,2083
41.1517,2114
41.2507,2051
41.3497,2037
41.4487,1993
41.5477,2063
41.6467,1985
41.7457,2029
41.8447,1983
41.9437,1981
42.0427,1976
42.1417,1932
42.2407,2007
42.3397,1966
42.4387,1945
42.5377,2003
42.6367,1985
42.7357,2012
42.8347,1998
42.9337,2029
43.0327,2083
43.1317,2060
43.2307,2404
43.3297,3128
43.4287,2869
43.5277,2255
43.6267,2070
43.7257,2161
43.8247,2099
43.9237,2101
44.0227,2195
44.1217,2106
44.2207,2070
44.3197,2086
44.4187,2075
44.5177,2081
44.6167,2131
44.7157,2019
44.8147,2091
44.9137,2053
45.0127,2041
45.1117,2109
45.2107,2167
45.3097,2098
45.4087,2108
45.5077,2097
45.6067,2069
45.7057,2106
45.8047,2135
45.9037,2117
46.0027,2118
46.1017,2165
46.2007,2175
46.2997,2220
46.3987,2276
46.4977,2353
46.5967,2733
46.6957,3792
46.7947,3163
46.8937,2490
46.9927,2247
47.0917,2226
47.1907,2189
47.2897,2277
47.3887,2278
47.4877,2368
47.5867,2277
47.6857,2422
47.7847,2667
47.8837,3800
47.9827,6857
48.0817,6253
48.1807,3455
48.2797,2634
48.3787,2345
48.4777,2256
48.5767,2185
48.6757,2200
48.7747,2214
48.8737,2153
48.9727,2227
49.0717,2193
49.1707,2166
49.2697,2085
49.3687,2217
49.4677,2207
49.5667,2235
49.6657,2244
49.7647,2200
49.8637,2160
49.9627,2230
50.0617,2188
50.1607,2189
50.2597,2231
50.3587,2195
50.4577,2164
50.5567,2173
50.6557,2338
50.7547,2295
50.8537,2397
50.9527,2645
51.0517,3467
51.1507,4230
51.2497,3315
51.3487,2511
51.4477,2424
51.5467,2308
51.6457,2242
51.7447,2219
51.8437,2260
51.9427,2403
52.0417,2420
52.1407,2365
52.2397,2502
52.3387,2505
52.4377,2356
52.5367,2408
52.6357,2402
52.7347,2295
52.8337,2249
52.9327,2295
53.0317,2306
53.1307,2294
53.2297,2308
53.3287,2368
53.4277,2402
53.5267,2346
53.6257,2428
53.7247,2470
53.8237,2464
53.9227,2423
54.0217,2429
54.1207,2504
54.2197,2644
54.3187,3132
54.4177,4904
54.5167,5588
54.6157,3561
54.7147,2786
54.8137,2604
54.9127,2590
55.0117,2598
55.1107,2724
55.2097,2516
55.3087,2518
55.4077,2377
55.5067,2364
55.6057,2355
55.7047,2382
55.8037,2269
55.9027,2293
56.0017,2293
56.1007,2323
56.1997,2303
56.2987,2349
56.3977,2380
56.4967,2371
56.5957,2305
56.6947,2354
56.7937,2357
56.8927,2260
56.9917,2392
57.0907,2433
57.1897,2503
57.2887,2675
57.3877,2447
57.4867,2360
57.5857,2432
57.6847,2306
57.7837,2389
57.8827,2340
57.9817,2368
58.0807,2389
58.1797,2475
58.2787,2446
58.3777,2446
58.4767,2353
58.5757,2417
58.6747,2366
58.7737,2493
58.8727,2440
58.9717,2447
59.0707,2555
59.1697,2507
59.2687,2758
59.3677,2920
59.4667,2695
59.5657,2539
59.6647,2780
59.7637,2821
59.8627,3267
59.9617,4236
60.0607,6667
60.1597,6937
60.2587,4483
60.3577,3215
60.4567,2822
60.5557,2661
60.6547,2632
60.7537,2599
60.8527,2681
60.9517,2967
61.0507,3931
61.1497,4502
61.2487,3594
61.3477,2871
61.4467,2552
61.5457,2524
61.6447,2547
61.7437,2505
61.8427,2476
61.9417,2407
62.0407,2403
62.1397,2476
62.2387,2513
62.3377,2445
62.4367,2431
62.5357,2375
62.6347,2523
62.7337,2446
62.8327,2425
62.9317,2373
63.0307,2450
63.1297,2434
63.2287,2461
63.3277,2480
63.4267,2445
63.5257,2439
63.6247,2455
63.7237,2426
63.8227,2470
63.9217,2491
64.0207,2456
64.1197,2423
64.2187,2435
64.3177,2489
64.4167,2455
64.5157,2477
64.6147,2396
64.7137,2533
64.8127,2487
64.9117,2645
65.0107,2697
65.1097,2873
65.2087,2612
65.3077,2528
65.4067,2508
65.5057,2491
65.6047,2596
65.7037,2439
65.8027,2479
65.9017,2491
66.0007,2444
66.0997,2504
66.1987,2413
66.2977,2462
66.3967,2538
66.4957,2543
66.5947,2544
66.6937,2399
66.7927,2570
66.8917,2564
66.9907,2529
67.0897,2604
67.1887,2642
67.2877,2801
67.3867,2717
67.4857,2601
67.5847,2588
67.6837,2574
67.7827,2551
67.8817,2513
67.9807,2586
68.0797,2520
68.1787,2479
68.2777,2571
68.3767,2593
68.4757,2546
68.5747,2522
68.6737,2549
68.7727,2621
68.8717,2529
68.9707,2611
69.0697,2566
69.1687,2703
69.2677,2605
69.3667,2641
69.4657,2528
69.5647,2566
69.6637,2489
69.7627,2599
69.8617,2484
69.9607,2519
70.0597,2552
70.1587,2544
70.2577,2611
70.3567,2519
70.4557,2578
70.5547,2572
70.6537,2507
70.7527,2574
70.8517,2600
70.9507,2666
71.0497,2774
71.1487,2766
71.2477,2642
71.3467,2600
71.4457,2616
71.5447,2735
71.6437,2669
71.7427,2764
71.8417,2700
71.9407,2684
72.0397,2610
72.1387,2624
72.2377,2643
72.3367,2690
72.4357,2693
72.5347,2694
72.6337,2614
72.7327,2653
72.8317,2662
72.9307,2623
73.0297,2612
73.1287,2770
73.2277,2613
73.3267,2595
73.4257,2618
73.5247,2642
73.6237,2575
73.7227,2615
73.8217,2632
73.9207,2672
74.0197,2696
74.1187,2652
74.2177,2612
74.3167,2728
74.4157,2572
74.5147,2657
74.6137,2664
74.7127,2619
74.8117,2729
74.9107,2729
75.0097,2816
75.1087,2980
75.2077,3172
75.3067,3183
75.4057,2888
75.5047,2785
75.6037,2712
75.7027,2716
75.8017,2679
75.9007,2714
75.9997,2676
76.0987,2774
76.1977,2906
76.2967,3259
76.3957,4066
76.4947,3915
76.5937,3192
76.6927,2939
76.7917,2884
76.8907,2771
76.9897,2755
77.0887,2799
77.1877,2808
77.2867,2921
77.3857,2814
77.4847,2791
77.5837,2849
77.6827,3072
77.7817,3380
77.8807,4291
77.9797,4835
78.0787,3927
78.1777,3275
78.2767,2931
78.3757,2961
78.4747,2852
78.5737,2849
78.6727,2888
78.7717,2840
78.8707,2891
78.9697,2777
79.0687,2763
79.1677,2751
79.2667,2752
79.3657,2776
79.4647,2742
79.5637,2819
79.6627,2794
79.7617,2795
79.8607,2732
79.9597,2761
80.0587,2870
80.1577,2912
80.2567,3084
80.3557,3136
80.4547,2872
80.5537,2881
80.6527,2835
80.7517,2782
80.8507,2843
80.9497,2741
81.0487,2848
81.1477,2779
81.2467,2776
81.3457,2811
81.4447,2745
81.5437,2765
81.6427,2798
81.7417,2708
81.8407,2796
81.9397,2750
82.0387,2872
82.1377,2959
82.2367,2825
82.3357,2858
82.4347,2901
82.5337,2989
82.6327,3429
82.7317,3688
82.8307,3598
82.9297,3205
83.0287,3039
83.1277,2974
83.2267,2907
83.3257,2934
83.4247,3056
83.5237,3212
83.6227,3504
83.7217,3559
83.8207,3199
83.9197,3050
84.0187,3060
84.1177,2984
84.2167,2846
84.3157,2834
84.4147,2822
84.5137,2912
84.6127,2818
84.7117,2926
84.8107,2906
84.9097,2813
85.0087,2918
85.1077,2812
85.2067,2847
85.3057,2858
85.4047,2936
85.5037,2946
85.6027,2877
85.7017,3019
85.8007,3120
85.8997,3285
85.9987,3670
86.0977,3564
86.1967,3346
86.2957,3032
86.3947,3056
86.4937,2875
86.5927,2921
86.6917,2880
86.7907,2982
86.8897,2976
86.9887,3022
87.0877,3244
87.1867,3613
87.2857,3444
87.3847,3150
87.4837,3060
87.5827,2959
87.6817,2880
87.7807,2932
87.8797,2998
87.9787,3109
88.0777,3132
88.1767,2946
88.2757,2898
88.3747,2860
88.4737,2821
88.5727,2821
88.6717,2902
88.7707,2844
88.8697,2866
88.9687,2905
89.0677,2875
89.1667,2909
89.2657,2943
89.3647,2925
89.4637,2854
89.5627,2963
89.6617,3131
89.7607,3266
89.8597,3613
89.9587,3549
90.0577,3231
90.1567,3083
90.2557,2976
90.3547,2903
90.4537,2984
90.5527,2931
90.6517,2920
90.7507,3002
90.8497,3044
90.9487,3174
91.0477,3190
91.1467,3020
91.2457,2978
91.3447,2906
91.4437,2881
91.5427,2922
91.6417,3013
91.7407,2977
91.8397,2914
91.9387,2985
92.0377,2921
92.1367,2963
92.2357,2976
92.3347,2964
92.4337,2998
92.5327,2996
92.6317,3018
92.7307,3127
92.8297,3183
92.9287,3016
93.0277,2955
93.1267,3002
93.2257,3006
93.3247,2939
93.4237,2922
93.5227,2898
93.6217,3021
93.7207,2999
93.8197,3109
93.9187,3025
94.0177,3125
94.1167,3380
94.2157,3626
94.3147,4048
94.4137,3852
94.5127,3354
94.6117,3132
94.7107,3209
94.8097,3032
94.9087,3001
95.0077,2975
95.1067,2964
95.2057,3087
95.3047,2911
95.4037,3100
95.5027,3030
95.6017,2954
95.7007,2958
95.7997,2993
95.8987,3039
95.9977,2962
96.0967,2990
96.1957,3009
96.2947,2946
96.3937,2906
96.4927,2993
96.5917,2956
96.6907,2974
96.7897,2949
96.8887,3036
96.9877,3040
97.0867,2952
97.1857,2965
97.2847,2922
97.3837,3030
97.4827,3051
97.5817,2983
97.6807,2986
97.7797,3030
97.8787,3020
97.9777,2990
98.0767,3123
98.1757,3101
98.2747,3033
98.3737,3003
98.4727,3086
98.5717,3072
98.6707,3063
98.7697,3108
98.8687,3119
98.9677,3048
99.0667,3106
99.1657,3231
99.2647,3362
99.3637,3586
99.4627,3536
99.5617,3348
99.6607,3140
99.7597,3189
99.8587,3240
99.9577,3255
100.0567,3181
100.1557,3129
100.2547,3068
100.3537,3074
100.4527,3032
100.5517,3019
100.6507,2969
100.7497,3127
100.8487,2998
100.9477,3048
101.0467,3043
101.1457,2959
101.2447,2993
101.3437,3034
101.4427,2982
101.5417,3070
101.6407,3050
101.7397,3027
101.8387,3007
101.9377,3075
102.0367,3141
102.1357,3114
102.2347,3092
102.3337,3090
102.4327,3041
102.5317,3111
102.6307,3123
102.7297,3039
102.8287,3107
102.9277,3172
103.0267,3147
103.1257,3084
103.2247,3053
103.3237,3130
103.4227,3269
103.5217,3270
103.6207,3220
103.7197,3211
103.8187,3213
103.9177,3403
104.0167,3606
104.1157,3864
104.2147,4046
104.3137,4021
104.4127,3723
104.5117,3343
104.6107,3354
104.7097,3304
104.8087,3261
104.9077,3192
105.0067,3183
105.1057,3076
105.2047,3075
105.3037,3191
105.4027,3179
105.5017,3113
105.6007,3158
105.6997,3138
105.7987,3134
105.8977,3122
105.9967,3119
106.0957,3078
106.1947,3107
106.2937,3197
106.3927,3142
106.4917,3059
106.5907,3074
106.6897,3205
106.7887,3123
106.8877,3114
106.9867,3228
107.0857,3207
107.1847,3237
107.2837,3225
107.3827,3223
107.4817,3308
107.5807,3307
107.6797,3295
107.7787,3249
107.8777,3125
107.9767,3180
108.0757,3113
108.1747,3162
108.2737,3158
108.3727,3176
108.4717,3241
108.5707,3237
108.6697,3466
108.7687,3412
108.8677,3581
108.9667,3727
109.0657,3533
109.1647,3404
109.2637,3372
109.3627,3364
109.4617,3316
109.5607,3277
109.6597,3265
109.7587,3297
109.8577,3241
109.9567,3212
110.0557,3216
110.1547,3246
110.2537,3167
110.3527,3288
110.4517,3222
110.5507,3197
110.6497,3226
110.7487,3232
110.8477,3248
110.9467,3243
111.0457,3361
111.1447,3437
111.2437,3319
111.3427,3373
111.4417,3478
111.5407,3619
111.6397,3970
111.7387,4137
111.8377,3978
111.9367,3609
112.0357,3550
112.1347,3366
112.2337,3224
112.3327,3215
112.4317,3304
112.5307,3194
112.6297,3198
112.7287,3334
112.8277,3407
112.9267,3396
113.0257,3373
113.1247,3315
113.2237,3223
113.3227,3286
113.4217,3233
113.5207,3212
113.6197,3260
113.7187,3249
113.8177,3240
113.9167,3267
114.0157,3250
114.1147,3251
114.2137,3229
114.3127,3276
114.4117,3299
114.5107,3208
114.6097,3152
114.7087,3293
114.8077,3264
114.9067,3183
115.0057,3260
115.1047,3229
115.2037,3197
115.3027,3359
115.4017,3238
115.5007,3331
115.5997,3242
115.6987,3268
115.7977,3188
115.8967,3284
115.9957,3252
116.0947,3254
116.1937,3266
116.2927,3210
116.3917,3297
116.4907,3284
116.5897,3178
116.6887,3285
116.7877,3211
116.8867,3364
116.9857,3305
117.0847,3274
117.1837,3241
117.2827,3160
117.3817,3280
117.4807,3246
117.5797,3330
117.6787,3329
117.7777,3320
117.8767,3363
117.9757,3281
118.0747,3309
118.1737,3313
118.2727,3288
118.3717,3284
118.4707,3364
118.5697,3342
118.6687,3298
118.7677,3351
118.8667,3386
118.9657,3411
119.0647,3513
119.1637,3692
119.2627,3782
119.3617,3666
119.4607,3560
119.5597,3465
119.6587,3429
119.7577,3412
119.8567,3405
119.9557,3372
119.9887,3478