File: data/xrd_icdd_PDF/00-071-0803 (PD3).csv
5.0332,8643
5.1132,8772
5.1932,8978
5.2732,9128
5.3532,8840
5.4332,9184
5.5132,8875
5.5932,8978
5.6732,8838
5.7532,8740
5.8332,8731
5.9132,8775
5.9932,8858
6.0732,8727
6.1532,8777
6.2332,8930
6.3132,8850
6.3932,8861
6.4732,8983
6.5532,8467
6.6332,8592
6.7132,8772
6.7932,8904
6.8732,8741
6.9532,8641
7.0332,8794
7.1132,8751
7.1932,8709
7.2732,8665
7.3532,8894
7.4332,8933
7.5132,8654
7.5932,8687
7.6732,8782
7.7532,8741
7.8332,8719
7.9132,8726
7.9932,8639
8.0732,8682
8.1532,8696
8.2332,8459
8.3132,8476
8.3932,8586
8.4732,8622
8.5532,8465
8.6332,8627
8.7132,8560
8.7932,8541
8.8732,8509
8.9532,8555
9.0332,8464
9.1132,8575
9.1932,8492
9.2732,8348
9.3532,8615
9.4332,8799
9.5132,8916
9.5932,8446
9.6732,8801
9.7532,8473
9.8332,8444
9.9132,8328
9.9932,8383
10.0732,8457
10.1532,8364
10.2332,8304
10.3132,8386
10.3932,8266
10.4732,8459
10.5532,8356
10.6332,8497
10.7132,8247
10.7932,8193
10.8732,8452
10.9532,8256
11.0332,8186
11.1132,8269
11.1932,8372
11.2732,8243
11.3532,8497
11.4332,8367
11.5132,8418
11.5932,8307
11.6732,7982
11.7532,8100
11.8332,8117
11.9132,8089
11.9932,8303
12.0732,8100
12.1532,8423
12.2332,8266
12.3132,8197
12.3932,8290
12.4732,8519
12.5532,8404
12.6332,8587
12.7132,8605
12.7932,8675
12.8732,8800
12.9532,8284
13.0332,8366
13.1132,8393
13.1932,8340
13.2732,8254
13.3532,8349
13.4332,8396
13.5132,8067
13.5932,8105
13.6732,8144
13.7532,7960
13.8332,8110
13.9132,8100
13.9932,8172
14.0732,8499
14.1532,8201
14.2332,8360
14.3132,8308
14.3932,8631
14.4732,8620
14.5532,8332
14.6332,8191
14.7132,8225
14.7932,8270
14.8732,8232
14.9532,8447
15.0332,8225
15.1132,8198
15.1932,8416
15.2732,8282
15.3532,8377
15.4332,8146
15.5132,8270
15.5932,8288
15.6732,8414
15.7532,8171
15.8332,8277
15.9132,8096
15.9932,8225
16.0732,8233
16.1532,8184
16.2332,8268
16.3132,8213
16.3932,8305
16.4732,8447
16.5532,8218
16.6332,8447
16.7132,8650
16.7932,8595
16.8732,8350
16.9532,8424
17.0332,8384
17.1132,8678
17.1932,8772
17.2732,8643
17.3532,8713
17.4332,8762
17.5132,8943
17.5932,8779
17.6732,8807
17.7532,8809
17.8332,9223
17.9132,9374
17.9932,9163
18.0732,8815
18.1532,9175
18.2332,8808
18.3132,8950
18.3932,8885
18.4732,9001
18.5532,9039
18.6332,8786
18.7132,8775
18.7932,8889
18.8732,8889
18.9532,8991
19.0332,8882
19.1132,9217
19.1932,9124
19.2732,9179
19.3532,9128
19.4332,9087
19.5132,9187
19.5932,9073
19.6732,9023
19.7532,9184
19.8332,9437
19.9132,9289
19.9932,9243
20.0732,9561
20.1532,9370
20.2332,9249
20.3132,9358
20.3932,9638
20.4732,9456
20.5532,9460
20.6332,9618
20.7132,9644
20.7932,9831
20.8732,9962
20.9532,10825
21.0332,11639
21.1132,10768
21.1932,10200
21.2732,10218
21.3532,10083
21.4332,10026
21.5132,9825
21.5932,9724
21.6732,9961
21.7532,9910
21.8332,9995
21.9132,10366
21.9932,10018
22.0732,10525
22.1532,10890
22.2332,11436
22.3132,11643
22.3932,11017
22.4732,10805
22.5532,10525
22.6332,10355
22.7132,10241
22.7932,10206
22.8732,10027
22.9532,10169
23.0332,10341
23.1132,11125
23.1932,12422
23.2732,13393
23.3532,11561
23.4332,10645
23.5132,10417
23.5932,10264
23.6732,10285
23.7532,10455
23.8332,10484
23.9132,10149
23.9932,10337
24.0732,10434
24.1532,10358
24.2332,10346
24.3132,10439
24.3932,10259
24.4732,10057
24.5532,10338
24.6332,10002
24.7132,9880
24.7932,10339
24.8732,10341
24.9532,9960
25.0332,9988
25.1132,9816
25.1932,10047
25.2732,9895
25.3532,10217
25.4332,10127
25.5132,10047
25.5932,10057
25.6732,10031
25.7532,10242
25.8332,10061
25.9132,9727
25.9932,9878
26.0732,9753
26.1532,9714
26.2332,9897
26.3132,9903
26.3932,9790
26.4732,9791
26.5532,9711
26.6332,9648
26.7132,9922
26.7932,9811
26.8732,9762
26.9532,10002
27.0332,9978
27.1132,9948
27.1932,9840
27.2732,9605
27.3532,9478
27.4332,9702
27.5132,9809
27.5932,9873
27.6732,9472
27.7532,9940
27.8332,9602
27.9132,9478
27.9932,9534
28.0732,9646
28.1532,9581
28.2332,9334
28.3132,9329
28.3932,9460
28.4732,9620
28.5532,9812
28.6332,9976
28.7132,10520
28.7932,11454
28.8732,14586
28.9532,19914
29.0332,21126
29.1132,16236
29.1932,12324
29.2732,10587
29.3532,9964
29.4332,9468
29.5132,9632
29.5932,9336
29.6732,9130
29.7532,9181
29.8332,9086
29.9132,8738
29.9932,8931
30.0732,8931
30.1532,8939
30.2332,9076
30.3132,9273
30.3932,9926
30.4732,11168
30.5532,11862
30.6332,10873
30.7132,9567
30.7932,9261
30.8732,8908
30.9532,8828
31.0332,8737
31.1132,8576
31.1932,8334
31.2732,8430
31.3532,8546
31.4332,8131
31.5132,8199
31.5932,8305
31.6732,8346
31.7532,8298
31.8332,8182
31.9132,8223
31.9932,7974
32.0732,7932
32.1532,7791
32.2332,7792
32.3132,7988
32.3932,7858
32.4732,7642
32.5532,7746
32.6332,7710
32.7132,7572
32.7932,7686
32.8732,7711
32.9532,7622
33.0332,7464
33.1132,7470
33.1932,7453
33.2732,7180
33.3532,7305
33.4332,7530
33.5132,7332
33.5932,7116
33.6732,7050
33.7532,7002
33.8332,6983
33.9132,7070
33.9932,7122
34.0732,7044
34.1532,6851
34.2332,6964
34.3132,7187
34.3932,7753
34.4732,8335
34.5532,8252
34.6332,7304
34.7132,7081
34.7932,6736
34.8732,6956
34.9532,6697
35.0332,6733
35.1132,6693
35.1932,6665
35.2732,6799
35.3532,6936
35.4332,6813
35.5132,7118
35.5932,8077
35.6732,10418
35.7532,12715
35.8332,10528
35.9132,7888
35.9932,7065
36.0732,6790
36.1532,6618
36.2332,6295
36.3132,6250
36.3932,6444
36.4732,6573
36.5532,6651
36.6332,7373
36.7132,8386
36.7932,8425
36.8732,7115
36.9532,6390
37.0332,6299
37.1132,6177
37.1932,5977
37.2732,5970
37.3532,5801
37.4332,5756
37.5132,5778
37.5932,5909
37.6732,5912
37.7532,6111
37.8332,5869
37.9132,5973
37.9932,5735
38.0732,5770
38.1532,5505
38.2332,5728
38.3132,5536
38.3932,5535
38.4732,5690
38.5532,5727
38.6332,5621
38.7132,5599
38.7932,5369
38.8732,5653
38.9532,5575
39.0332,5749
39.1132,5548
39.1932,5710
39.2732,5385
39.3532,5349
39.4332,5485
39.5132,5585
39.5932,5502
39.6732,5515
39.7532,5575
39.8332,5400
39.9132,5503
39.9932,5303
40.0732,5249
40.1532,5338
40.2332,5287
40.3132,5361
40.3932,5380
40.4732,5357
40.5532,5397
40.6332,5239
40.7132,5320
40.7932,5403
40.8732,5625
40.9532,5488
41.0332,5447
41.1132,5478
41.1932,5522
41.2732,5601
41.3532,5379
41.4332,5353
41.5132,5407
41.5932,5460
41.6732,5448
41.7532,5459
41.8332,5485
41.9132,5321
41.9932,5361
42.0732,5324
42.1532,5239
42.2332,5447
42.3132,5407
42.3932,5549
42.4732,5565
42.5532,5522
42.6332,5478
42.7132,5545
42.7932,5357
42.8732,5487
42.9532,5612
43.0332,5911
43.1132,6425
43.1932,7342
43.2732,6541
43.3532,5811
43.4332,5657
43.5132,5606
43.5932,5451
43.6732,5351
43.7532,5314
43.8332,5374
43.9132,5207
43.9932,5335
44.0732,5398
44.1532,5404
44.2332,5249
44.3132,5208
44.3932,5362
44.4732,5403
44.5532,5317
44.6332,5229
44.7132,5182
44.7932,5047
44.8732,5253
44.9532,5174
45.0332,5109
45.1132,5209
45.1932,5106
45.2732,5057
45.3532,5156
45.4332,5034
45.5132,5102
45.5932,5071
45.6732,5029
45.7532,5067
45.8332,5221
45.9132,5004
45.9932,5075
46.0732,5075
46.1532,5126
46.2332,5006
46.3132,5176
46.3932,5026
46.4732,5108
46.5532,5253
46.6332,5457
46.7132,5772
46.7932,5586
46.8732,5477
46.9532,5215
47.0332,5092
47.1132,5207
47.1932,5023
47.2732,5199
47.3532,5146
47.4332,5684
47.5132,6470
47.5932,6249
47.6732,5422
47.7532,5351
47.8332,5129
47.9132,5164
47.9932,5113
48.0732,5566
48.1532,5883
48.2332,6174
48.3132,5905
48.3932,5988
48.4732,6498
48.5532,6462
48.6332,5666
48.7132,5628
48.7932,5405
48.8732,5155
48.9532,5102
49.0332,5050
49.1132,5003
49.1932,5014
49.2732,4980
49.3532,5173
49.4332,5101
49.5132,5163
49.5932,5461
49.6732,5440
49.7532,4984
49.8332,4958
49.9132,4884
49.9932,4772
50.0732,4825
50.1532,4905
50.2332,4985
50.3132,4720
50.3932,4848
50.4732,4844
50.5532,4967
50.6332,4917
50.7132,4817
50.7932,4837
50.8732,4745
50.9532,4949
51.0332,4810
51.1132,4841
51.1932,4888
51.2732,4713
51.3532,4685
51.4332,4929
51.5132,4787
51.5932,4903
51.6732,4746
51.7532,4821
51.8332,4892
51.9132,5095
51.9932,4865
52.0732,4787
52.1532,4907
52.2332,4791
52.3132,4875
52.3932,4971
52.4732,4972
52.5532,4732
52.6332,4878
52.7132,4948
52.7932,5365
52.8732,5629
52.9532,5727
53.0332,5419
53.1132,5065
53.1932,5165
53.2732,4889
53.3532,4845
53.4332,4937
53.5132,4705
53.5932,4791
53.6732,4990
53.7532,4903
53.8332,4813
53.9132,4875
53.9932,4740
54.0732,4814
54.1532,4984
54.2332,4789
54.3132,4958
54.3932,4914
54.4732,4929
54.5532,4985
54.6332,5006
54.7132,4958
54.7932,4730
54.8732,4802
54.9532,4807
55.0332,4830
55.1132,4845
55.1932,4708
55.2732,4869
55.3532,4680
55.4332,4921
55.5132,5064
55.5932,4909
55.6732,4884
55.7532,4729
55.8332,4826
55.9132,4856
55.9932,5043
56.0732,4841
56.1532,5005
56.2332,4976
56.3132,5360
56.3932,5446
56.4732,5484
56.5532,5400
56.6332,5275
56.7132,5377
56.7932,5657
56.8732,5747
56.9532,5843
57.0332,5590
57.1132,5303
57.1932,5134
57.2732,5073
57.3532,4922
57.4332,5227
57.5132,5151
57.5932,5317
57.6732,5210
57.7532,5361
57.8332,5567
57.9132,5730
57.9932,6028
58.0732,5623
58.1532,5708
58.2332,5390
58.3132,5184
58.3932,5122
58.4732,5189
58.5532,5069
58.6332,5284
58.7132,5209
58.7932,5127
58.8732,5035
58.9532,4986
59.0332,4850
59.1132,4792
59.1932,4940
59.2732,4796
59.3532,4976
59.4332,5011
59.5132,5096
59.5932,5045
59.6732,4978
59.7532,4953
59.8332,5007
59.9132,4935
59.9932,4878
60.0732,4943
60.1532,5145
60.2332,5063
60.3132,5103
60.3932,5056
60.4732,4702
60.5532,4997
60.6332,4898
60.7132,4839
60.7932,5003
60.8732,5083
60.9532,4750
61.0332,5034
61.1132,4992
61.1932,5000
61.2732,5123
61.3532,5163
61.4332,5655
61.5132,5468
61.5932,5295
61.6732,5213
61.7532,5064
61.8332,5065
61.9132,4996
61.9932,4993
62.0732,4980
62.1532,4854
62.2332,4955
62.3132,4767
62.3932,5029
62.4732,4921
62.5532,4955
62.6332,5023
62.7132,4861
62.7932,4918
62.8732,4990
62.9532,4847
63.0332,4851
63.1132,4891
63.1932,4981
63.2732,4926
63.3532,4996
63.4332,5133
63.5132,5191
63.5932,5132
63.6732,5060
63.7532,4981
63.8332,4957
63.9132,4911
63.9932,5013
64.0732,5126
64.1532,4873
64.2332,4770
64.3132,4866
64.3932,5060
64.4732,5037
64.5532,4848
64.6332,5014
64.7132,5406
64.7932,5088
64.8732,4993
64.9532,5025
65.0332,5037
65.1132,5044
65.1932,5058
65.2732,5071
65.3532,5167
65.4332,5239
65.5132,5474
65.5932,5379
65.6732,5258
65.7532,5190
65.8332,5174
65.9132,4987
65.9932,5271
66.0732,5324
66.1532,5820
66.2332,5467
66.3132,5296
66.3932,5294
66.4732,5214
66.5532,5311
66.6332,5411
66.7132,5378
66.7932,5153
66.8732,5126
66.9532,4953
67.0332,4870
67.1132,4846
67.1932,5033
67.2732,4938
67.3532,4766
67.4332,4782
67.5132,4844
67.5932,4801
67.6732,5014
67.7532,4932
67.8332,4766
67.9132,4732
67.9932,4763
68.0732,4874
68.1532,4784
68.2332,4902
68.3132,4807
68.3932,4768
68.4732,4766
68.5532,4728
68.6332,4851
68.7132,4581
68.7932,4887
68.8732,4735
68.9532,4883
69.0332,4748
69.1132,4736
69.1932,4924
69.2732,4850
69.3532,4987
69.4332,4987
69.5132,5189
69.5932,5413
69.6732,5545
69.7532,5494
69.8332,5224
69.9132,4991
69.9932,4951
70.0732,4974
70.1532,4785
70.2332,4898
70.3132,4854
70.3932,5042
70.4732,5108
70.5532,5095
70.6332,5185
70.7132,5010
70.7932,4866
70.8732,4850
70.9532,4712
71.0332,4718
71.1132,4616
71.1932,4764
71.2732,4962
71.3532,4801
71.4332,4741
71.5132,4738
71.5932,4721
71.6732,4706
71.7532,4629
71.8332,4752
71.9132,4527
71.9932,4680
72.0732,4640
72.1532,4630
72.2332,4652
72.3132,4591
72.3932,4566
72.4732,4647
72.5532,4615
72.6332,4692
72.7132,4654
72.7932,4640
72.8732,4622
72.9532,4618
73.0332,4767
73.1132,4810
73.1932,4688
73.2732,4791
73.3532,4673
73.4332,4684
73.5132,4605
73.5932,4534
73.6732,4689
73.7532,4507
73.8332,4634
73.9132,4674
73.9932,4697
74.0732,4699
74.1532,4709
74.2332,4921
74.3132,5071
74.3932,5253
74.4732,5048
74.5532,4801
74.6332,4603
74.7132,4567
74.7932,4545
74.8732,4439
74.9532,4612
75.0332,4561
75.1132,4501
75.1932,4520
75.2732,4679
75.3532,4557
75.4332,4743
75.5132,4644
75.5932,4818
75.6732,4671
75.7532,4636
75.8332,4636
75.9132,4424
75.9932,4667
76.0732,4500
76.1532,4517
76.2332,4468
76.3132,4522
76.3932,4396
76.4732,4538
76.5532,4532
76.6332,4539
76.7132,4526
76.7932,4533
76.8732,4682
76.9532,4491
77.0332,4651
77.1132,4516
77.1932,4495
77.2732,4619
77.3532,4578
77.4332,4586
77.5132,4388
77.5932,4578
77.6732,4384
77.7532,4467
77.8332,4534
77.9132,4435
77.9932,4707
78.0732,4521
78.1532,4603
78.2332,4499
78.3132,4494
78.3932,4570
78.4732,4574
78.5532,4423
78.6332,4609
78.7132,4379
78.7932,4490
78.8732,4255
78.9532,4493
79.0332,4404
79.1132,4429
79.1932,4279
79.2732,4343
79.3532,4414
79.4332,4520
79.5132,4568
79.5932,4412
79.6732,4432
79.7532,4521
79.8332,4393
79.9132,4462
79.9932,4594
80.0732,4580
80.1532,4378
80.2332,4434
80.3132,4411
80.3932,4559
80.4732,4475
80.5532,4428
80.6332,4522
80.7132,4686
80.7932,4527
80.8732,4508
80.9532,4458
81.0332,4578
81.1132,4434
81.1932,4443
81.2732,4348
81.3532,4531
81.4332,4420
81.5132,4388
81.5932,4486
81.6732,4649
81.7532,4516
81.8332,4465
81.9132,4426
81.9932,4400
82.0732,4302
82.1532,4370
82.2332,4255
82.3132,4331
82.3932,4254
82.4732,4322
82.5532,4299
82.6332,4352
82.7132,4200
82.7932,4450
82.8732,4328
82.9532,4351
83.0332,4527
83.1132,4392
83.1932,4298
83.2732,4423
83.3532,4170
83.4332,4282
83.5132,4425
83.5932,4388
83.6732,4222
83.7532,4282
83.8332,4396
83.9132,4222
83.9932,4334
84.0732,4320
84.1532,4154
84.2332,4367
84.3132,4288
84.3932,4449
84.4732,4301
84.5532,4168
84.6332,4147
84.7132,4280
84.7932,4403
84.8732,4139
84.9532,4270
85.0332,4073
85.1132,4178
85.1932,4223
85.2732,4285
85.3532,4199
85.4332,4127
85.5132,4153
85.5932,4432
85.6732,4174
85.7532,4266
85.8332,4129
85.9132,4203
85.9932,4312
86.0732,4229
86.1532,4337
86.2332,4297
86.3132,4051
86.3932,4194
86.4732,4109
86.5532,4094
86.6332,4175
86.7132,4113
86.7932,4139
86.8732,3996
86.9532,4159
87.0332,4060
87.1132,4001
87.1932,4112
87.2732,4161
87.3532,4204
87.4332,4110
87.5132,3977
87.5932,4039
87.6732,4164
87.7532,4062
87.8332,4010
87.9132,4120
87.9932,3991
88.0732,4071
88.1532,4132
88.2332,4102
88.3132,4196
88.3932,4083
88.4732,4036
88.5532,4107
88.6332,4073
88.7132,4167
88.7932,4086
88.8732,4125
88.9532,4120
89.0332,3991
89.1132,4035
89.1932,3993
89.2732,4137
89.3532,4084
89.4332,4230
89.5132,4157
89.5932,4131
89.6732,3995
89.7532,4099
89.8332,4217
89.9132,4201
89.9932,4320
90.0732,4170
90.1532,4023
90.2332,4387
90.3132,4123
90.3932,4177
90.4732,4080
90.5532,4100
90.6332,4096
90.7132,4085
90.7932,3987
90.8732,4005
90.9532,4064
91.0332,4007
91.1132,4195
91.1932,3914
91.2732,4166
91.3532,4152
91.4332,4168
91.5132,4053
91.5932,3963
91.6732,4131
91.7532,3782
91.8332,4111
91.9132,4095
91.9932,3947
92.0732,4104
92.1532,3925
92.2332,4003
92.3132,3865
92.3932,4005
92.4732,4021
92.5532,4068
92.6332,3963
92.7132,3950
92.7932,4138
92.8732,4049
92.9532,4026
93.0332,3986
93.1132,3944
93.1932,4156
93.2732,4117
93.3532,4091
93.4332,4173
93.5132,4263
93.5932,4365
93.6732,4250
93.7532,4218
93.8332,4135
93.9132,4266
93.9932,4142
94.0732,3963
94.1532,4161
94.2332,4087
94.3132,3839
94.3932,4061
94.4732,3866
94.5532,4013
94.6332,4130
94.7132,4207
94.7932,4183
94.8732,4073
94.9532,4025
95.0332,3896
95.1132,3916
95.1932,4098
95.2732,4000
95.3532,4030
95.4332,3948
95.5132,4095
95.5932,3982
95.6732,3964
95.7532,4092
95.8332,3962
95.9132,4150
95.9932,3939
96.0732,4086
96.1532,4014
96.2332,4115
96.3132,4294
96.3932,4174
96.4732,4023
96.5532,4030
96.6332,3981
96.7132,4164
96.7932,3868
96.8732,4076
96.9532,4064
97.0332,4034
97.1132,4031
97.1932,3946
97.2732,4099
97.3532,4087
97.4332,4056
97.5132,3961
97.5932,4089
97.6732,3890
97.7532,3884
97.8332,4021
97.9132,3892
97.9932,4029
98.0732,3914
98.1532,3989
98.2332,3922
98.3132,3939
98.3932,3878
98.4732,3955
98.5532,4068
98.6332,4037
98.7132,4003
98.7932,3970
98.8732,3991
98.9532,4072
99.0332,4050
99.1132,3850
99.1932,3869
99.2732,4117
99.3532,3961
99.4332,4111
99.5132,4066
99.5932,3989
99.6732,4024
99.7532,4062
99.8332,3900
99.9132,3953
99.9932,3862
100.0732,3891
100.1532,3821
100.2332,4081
100.3132,3999
100.3932,3992
100.4732,4124
100.5532,3943
100.6332,3962
100.7132,4133
100.7932,4115
100.8732,3961
100.9532,4187
101.0332,4236
101.1132,4005
101.1932,4234
101.2732,4203
101.3532,4143
101.4332,4196
101.5132,4187
101.5932,4104
101.6732,4115
101.7532,3835
101.8332,4031
101.9132,3878
101.9932,3975
102.0732,3904
102.1532,4029
102.2332,4115
102.3132,4037
102.3932,4043
102.4732,4068
102.5532,4247
102.6332,4099
102.7132,4200
102.7932,4149
102.8732,4040
102.9532,4296
103.0332,4280
103.1132,3932
103.1932,4081
103.2732,4051
103.3532,4150
103.4332,4000
103.5132,3936
103.5932,4014
103.6732,4154
103.7532,4071
103.8332,4070
103.9132,4029
103.9932,4089
104.0732,3954
104.1532,4012
104.2332,4120
104.3132,4231
104.3932,4308
104.4732,4099
104.5532,4135
104.6332,4189
104.7132,4128
104.7932,4239
104.8732,4188
104.9532,4252
105.0332,4068
105.1132,4206
105.1932,4095
105.2732,4056
105.3532,4039
105.4332,3943
105.5132,3987
105.5932,4031
105.6732,4002
105.7532,3907
105.8332,4015
105.9132,4081
105.9932,3978
106.0732,4202
106.1532,4028
106.2332,4136
106.3132,4065
106.3932,4048
106.4732,4243
106.5532,4100
106.6332,4112
106.7132,4045
106.7932,4193
106.8732,4005
106.9532,3985
107.0332,3997
107.1132,4096
107.1932,4026
107.2732,4213
107.3532,4043
107.4332,4082
107.5132,4095
107.5932,3925
107.6732,3958
107.7532,4096
107.8332,4031
107.9132,4101
107.9932,4068
108.0732,3929
108.1532,4167
108.2332,4057
108.3132,4205
108.3932,4158
108.4732,4054
108.5532,4054
108.6332,3972
108.7132,4177
108.7932,4117
108.8732,4051
108.9532,4116
109.0132,4014