File: data/xrd_icdd_PDF/00-059-0205 (PD3).csv
6,2512
6.07,2528
6.14,2511
6.21,2439
6.28,2552
6.35,2441
6.42,2487
6.49,2430
6.56,2427
6.63,2490
6.7,2473
6.77,2460
6.84,2452
6.91,2455
6.98,2438
7.05,2385
7.12,2525
7.19,2554
7.26,2605
7.33,2448
7.4,2477
7.47,2406
7.54,2342
7.61,2423
7.68,2466
7.75,2377
7.82,2384
7.89,2372
7.96,2369
8.03,2401
8.1,2399
8.17,2299
8.24,2256
8.31,2306
8.38,2333
8.45,2295
8.52,2348
8.59,2324
8.66,2326
8.73,2293
8.8,2213
8.87,2262
8.94,2221
9.01,2356
9.08,2256
9.15,2258
9.22,2190
9.29,2186
9.36,2230
9.43,2223
9.5,2174
9.57,2154
9.64,2190
9.71,2199
9.78,2136
9.85,2144
9.92,2245
9.99,2190
10.06,2101
10.13,2152
10.2,2252
10.27,2121
10.34,2177
10.41,2145
10.48,2110
10.55,2088
10.62,2113
10.69,2080
10.76,2042
10.83,2156
10.9,2040
10.97,2046
11.04,2050
11.11,2050
11.18,2019
11.25,2084
11.32,1993
11.39,2047
11.46,2039
11.53,2026
11.6,2003
11.67,2077
11.74,2023
11.81,1972
11.88,1955
11.95,1938
12.02,2044
12.09,1967
12.16,2018
12.23,2037
12.3,1989
12.37,1938
12.44,1997
12.51,1914
12.58,1907
12.65,1993
12.72,1910
12.79,1954
12.86,1905
12.93,1923
13,1900
13.07,1952
13.14,1839
13.21,1924
13.28,1857
13.35,1903
13.42,1859
13.49,1840
13.56,1817
13.63,1883
13.7,1885
13.77,1861
13.84,1841
13.91,1894
13.98,1812
14.05,1825
14.12,1848
14.19,1846
14.26,1847
14.33,1851
14.4,1734
14.47,1838
14.54,1848
14.61,1830
14.68,1822
14.75,1828
14.82,1766
14.89,1842
14.96,1825
15.03,1774
15.1,1765
15.17,1772
15.24,1749
15.31,1743
15.38,1804
15.45,1707
15.52,1754
15.59,1722
15.66,1719
15.73,1680
15.8,1746
15.87,1658
15.94,1656
16.01,1760
16.08,1734
16.15,1767
16.22,1730
16.29,1713
16.36,1735
16.43,1696
16.5,1635
16.57,1733
16.64,1716
16.71,1725
16.78,1664
16.85,1679
16.92,1719
16.99,1666
17.06,1659
17.13,1652
17.2,1676
17.27,1711
17.34,1619
17.41,1658
17.48,1672
17.55,1688
17.62,1710
17.69,1636
17.76,1696
17.83,1602
17.9,1668
17.97,1643
18.04,1682
18.11,1639
18.18,1637
18.25,1662
18.32,1582
18.39,1605
18.46,1595
18.53,1548
18.6,1588
18.67,1628
18.74,1860
18.81,2151
18.88,2792
18.95,2481
19.02,1859
19.09,1670
19.16,1638
19.23,1574
19.3,1574
19.37,1605
19.44,1505
19.51,1578
19.58,1531
19.65,1454
19.72,1561
19.79,1485
19.86,1467
19.93,1560
20,1591
20.07,1618
20.14,1681
20.21,2151
20.28,2323
20.35,1850
20.42,1650
20.49,1484
20.56,1492
20.63,1508
20.7,1513
20.77,1508
20.84,1505
20.91,1405
20.98,1465
21.05,1417
21.12,1440
21.19,1400
21.26,1424
21.33,1424
21.4,1407
21.47,1463
21.54,1509
21.61,1432
21.68,1448
21.75,1417
21.82,1374
21.89,1444
21.96,1386
22.03,1400
22.1,1457
22.17,1424
22.24,1317
22.31,1382
22.38,1321
22.45,1353
22.52,1370
22.59,1356
22.66,1416
22.73,1356
22.8,1357
22.87,1371
22.94,1337
23.01,1381
23.08,1313
23.15,1385
23.22,1299
23.29,1282
23.36,1280
23.43,1262
23.5,1342
23.57,1308
23.64,1348
23.71,1325
23.78,1356
23.85,1533
23.92,1547
23.99,1500
24.06,1346
24.13,1272
24.2,1220
24.27,1257
24.34,1237
24.41,1252
24.48,1178
24.55,1222
24.62,1217
24.69,1252
24.76,1197
24.83,1226
24.9,1226
24.97,1235
25.04,1172
25.11,1164
25.18,1165
25.25,1170
25.32,1174
25.39,1134
25.46,1153
25.53,1128
25.6,1110
25.67,1147
25.74,1166
25.81,1097
25.88,1166
25.95,1101
26.02,1111
26.09,1098
26.16,1134
26.23,1106
26.3,1142
26.37,1131
26.44,1121
26.51,1110
26.58,1100
26.65,1155
26.72,1200
26.79,1244
26.86,1274
26.93,1228
27,1107
27.07,1122
27.14,1123
27.21,1077
27.28,1047
27.35,1068
27.42,1040
27.49,1075
27.56,1114
27.63,1200
27.7,1325
27.77,1761
27.84,2049
27.91,1796
27.98,1342
28.05,1217
28.12,1103
28.19,1032
28.26,1023
28.33,1022
28.4,999
28.47,993
28.54,1029
28.61,1038
28.68,1012
28.75,1017
28.82,1106
28.89,1155
28.96,1336
29.03,1526
29.1,1375
29.17,1190
29.24,1081
29.31,1045
29.38,1008
29.45,1006
29.52,1024
29.59,1022
29.66,972
29.73,980
29.8,996
29.87,967
29.94,1039
30.01,1034
30.08,1029
30.15,1057
30.22,1056
30.29,1195
30.36,1386
30.43,1717
30.5,2572
30.57,4447
30.64,6524
30.71,5238
30.78,3160
30.85,1954
30.92,1387
30.99,1282
31.06,1097
31.13,1076
31.2,973
31.27,968
31.34,996
31.41,967
31.48,911
31.55,958
31.62,907
31.69,913
31.76,922
31.83,931
31.9,951
31.97,923
32.04,915
32.11,881
32.18,922
32.25,849
32.32,887
32.39,897
32.46,861
32.53,849
32.6,881
32.67,904
32.74,951
32.81,922
32.88,955
32.95,874
33.02,848
33.09,902
33.16,898
33.23,873
33.3,881
33.37,884
33.44,880
33.51,918
33.58,932
33.65,894
33.72,895
33.79,878
33.86,927
33.93,918
34,908
34.07,984
34.14,1007
34.21,1050
34.28,1105
34.35,1201
34.42,1361
34.49,1764
34.56,2124
34.63,3125
34.7,5229
34.77,9613
34.84,15859
34.91,14762
34.98,8328
35.05,4501
35.12,2793
35.19,2025
35.26,1549
35.33,1246
35.4,1099
35.47,1030
35.54,978
35.61,944
35.68,927
35.75,895
35.82,882
35.89,844
35.96,833
36.03,828
36.1,828
36.17,870
36.24,852
36.31,877
36.38,915
36.45,898
36.52,1028
36.59,1291
36.66,1727
36.73,2627
36.8,3585
36.87,2601
36.94,1602
37.01,1098
37.08,982
37.15,934
37.22,875
37.29,795
37.36,818
37.43,775
37.5,800
37.57,885
37.64,908
37.71,922
37.78,973
37.85,1047
37.92,1182
37.99,1515
38.06,2011
38.13,3127
38.2,5708
38.27,10068
38.34,13159
38.41,9315
38.48,5333
38.55,3191
38.62,2057
38.69,1516
38.76,1279
38.83,1026
38.9,956
38.97,832
39.04,901
39.11,850
39.18,814
39.25,760
39.32,758
39.39,750
39.46,736
39.53,728
39.6,715
39.67,747
39.74,788
39.81,827
39.88,940
39.95,1039
40.02,1410
40.09,1838
40.16,1801
40.23,1322
40.3,1035
40.37,867
40.44,844
40.51,790
40.58,730
40.65,749
40.72,677
40.79,654
40.86,676
40.93,614
41,701
41.07,606
41.14,662
41.21,658
41.28,641
41.35,666
41.42,633
41.49,661
41.56,644
41.63,705
41.7,630
41.77,659
41.84,682
41.91,657
41.98,626
42.05,622
42.12,636
42.19,591
42.26,609
42.33,592
42.4,642
42.47,601
42.54,610
42.61,659
42.68,631
42.75,629
42.82,696
42.89,714
42.96,754
43.03,820
43.1,839
43.17,752
43.24,656
43.31,644
43.38,656
43.45,696
43.52,656
43.59,660
43.66,739
43.73,761
43.8,710
43.87,691
43.94,656
44.01,657
44.08,647
44.15,623
44.22,678
44.29,682
44.36,752
44.43,913
44.5,1090
44.57,965
44.64,765
44.71,688
44.78,655
44.85,625
44.92,589
44.99,585
45.06,585
45.13,630
45.2,625
45.27,620
45.34,584
45.41,562
45.48,610
45.55,648
45.62,664
45.69,639
45.76,676
45.83,647
45.9,645
45.97,695
46.04,675
46.11,764
46.18,820
46.25,696
46.32,604
46.39,588
46.46,591
46.53,575
46.6,581
46.67,571
46.74,528
46.81,569
46.88,530
46.95,554
47.02,508
47.09,518
47.16,535
47.23,597
47.3,540
47.37,555
47.44,570
47.51,576
47.58,545
47.65,532
47.72,569
47.79,550
47.86,576
47.93,513
48,553
48.07,547
48.14,552
48.21,585
48.28,537
48.35,573
48.42,603
48.49,588
48.56,621
48.63,606
48.7,724
48.77,800
48.84,790
48.91,684
48.98,661
49.05,598
49.12,581
49.19,590
49.26,507
49.33,532
49.4,527
49.47,530
49.54,507
49.61,537
49.68,542
49.75,518
49.82,506
49.89,549
49.96,483
50.03,510
50.1,481
50.17,508
50.24,497
50.31,533
50.38,518
50.45,521
50.52,535
50.59,530
50.66,505
50.73,521
50.8,501
50.87,489
50.94,519
51.01,549
51.08,480
51.15,509
51.22,529
51.29,569
51.36,520
51.43,490
51.5,474
51.57,505
51.64,550
51.71,507
51.78,529
51.85,534
51.92,589
51.99,502
52.06,559
52.13,525
52.2,527
52.27,550
52.34,641
52.41,642
52.48,652
52.55,660
52.62,643
52.69,658
52.76,665
52.83,691
52.9,624
52.97,592
53.04,553
53.11,582
53.18,592
53.25,577
53.32,577
53.39,544
53.46,559
53.53,611
53.6,621
53.67,715
53.74,740
53.81,794
53.88,946
53.95,1216
54.02,1514
54.09,2007
54.16,2857
54.23,2722
54.3,2011
54.37,1559
54.44,1118
54.51,930
54.58,895
54.65,767
54.72,768
54.79,771
54.86,725
54.93,823
55,985
55.07,1149
55.14,1617
55.21,2302
55.28,3198
55.35,3263
55.42,2466
55.49,1751
55.56,1250
55.63,1006
55.7,913
55.77,816
55.84,711
55.91,623
55.98,638
56.05,593
56.12,602
56.19,604
56.26,548
56.33,584
56.4,568
56.47,496
56.54,556
56.61,531
56.68,546
56.75,492
56.82,501
56.89,498
56.96,503
57.03,498
57.1,483
57.17,502
57.24,518
57.31,470
57.38,501
57.45,505
57.52,510
57.59,498
57.66,498
57.73,523
57.8,515
57.87,504
57.94,490
58.01,484
58.08,527
58.15,481
58.22,484
58.29,472
58.36,508
58.43,498
58.5,491
58.57,505
58.64,510
58.71,491
58.78,482
58.85,522
58.92,493
58.99,514
59.06,521
59.13,491
59.2,495
59.27,507
59.34,546
59.41,530
59.48,552
59.55,556
59.62,599
59.69,570
59.76,668
59.83,762
59.9,784
59.97,874
60.04,889
60.11,990
60.18,1040
60.25,953
60.32,774
60.39,634
60.46,620
60.53,597
60.6,584
60.67,545
60.74,533
60.81,492
60.88,503
60.95,537
61.02,481
61.09,518
61.16,489
61.23,488
61.3,478
61.37,491
61.44,502
61.51,474
61.58,495
61.65,467
61.72,488
61.79,459
61.86,488
61.93,482
62,486
62.07,475
62.14,412
62.21,487
62.28,450
62.35,512
62.42,473
62.49,486
62.56,464
62.63,464
62.7,501
62.77,509
62.84,518
62.91,558
62.98,575
63.05,605
63.12,593
63.19,551
63.26,550
63.33,542
63.4,495
63.47,515
63.54,557
63.61,577
63.68,603
63.75,597
63.82,560
63.89,580
63.96,567
64.03,556
64.1,572
64.17,614
64.24,670
64.31,666
64.38,803
64.45,1017
64.52,1180
64.59,1228
64.66,1062
64.73,994
64.8,807
64.87,680
64.94,622
65.01,598
65.08,600
65.15,554
65.22,527
65.29,571
65.36,557
65.43,547
65.5,522
65.57,539
65.64,493
65.71,510
65.78,520
65.85,500
65.92,523
65.99,581
66.06,535
66.13,577
66.2,614
66.27,625
66.34,654
66.41,683
66.48,758
66.55,851
66.62,916
66.69,1120
66.76,1418
66.83,1724
66.9,2190
66.97,2792
67.04,3381
67.11,3368
67.18,2862
67.25,2302
67.32,2007
67.39,1988
67.46,2023
67.53,1994
67.6,1733
67.67,1391
67.74,1164
67.81,1025
67.88,864
67.95,879
68.02,854
68.09,1008
68.16,1130
68.23,1363
68.3,1392
68.37,1337
68.44,1063
68.51,932
68.58,828
68.65,656
68.72,657
68.79,593
68.86,541
68.93,564
69,508
69.07,495
69.14,549
69.21,537
69.28,485
69.35,474
69.42,485
69.49,493
69.56,479
69.63,479
69.7,468
69.77,458
69.84,515
69.91,524
69.98,515
70.05,502
70.12,547
70.19,571
70.26,609
70.33,649
70.4,682
70.47,721
70.54,700
70.61,666
70.68,646
70.75,574
70.82,503
70.89,484
70.96,523
71.03,474
71.1,468
71.17,465
71.24,449
71.31,447
71.38,447
71.45,436
71.52,453
71.59,489
71.66,472
71.73,476
71.8,447
71.87,447
71.94,458
72.01,435
72.08,463
72.15,463
72.22,460
72.29,429
72.36,467
72.43,529
72.5,467
72.57,499
72.64,482
72.71,484
72.78,464
72.85,492
72.92,462
72.99,452
73.06,490
73.13,494
73.2,483
73.27,535
73.34,550
73.41,580
73.48,604
73.55,660
73.62,693
73.69,663
73.76,643
73.83,615
73.9,597
73.97,529
74.04,542
74.11,550
74.18,494
74.25,567
74.32,461
74.39,503
74.46,487
74.53,500
74.6,505
74.67,472
74.74,516
74.81,501
74.88,506
74.95,458
75.02,448
75.09,489
75.16,482
75.23,425
75.3,465
75.37,427
75.44,438
75.51,447
75.58,454
75.65,423
75.72,459
75.79,444
75.86,449
75.93,467
76,441
76.07,433
76.14,472
76.21,441
76.28,411
76.35,433
76.42,414
76.49,438
76.56,468
76.63,464
76.7,482
76.77,485
76.84,468
76.91,488
76.98,512
77.05,503
77.12,505
77.19,471
77.26,438
77.33,437
77.4,432
77.47,473
77.54,447
77.61,442
77.68,449
77.75,444
77.82,481
77.89,424
77.96,487
78.03,520
78.1,486
78.17,496
78.24,540
78.31,527
78.38,509
78.45,497
78.52,498
78.59,457
78.66,469
78.73,464
78.8,445
78.87,490
78.94,480
79.01,466
79.08,461
79.15,484
79.22,455
79.29,467
79.36,510
79.43,455
79.5,468
79.57,497
79.64,549
79.71,552
79.78,574
79.85,560
79.92,535
79.99,545
80.06,509
80.13,502
80.2,472
80.27,501
80.34,483
80.41,458
80.48,432
80.55,442
80.62,456
80.69,445
80.76,454
80.83,480
80.9,454
80.97,502
81.04,432
81.11,459
81.18,460
81.25,521
81.32,485
81.39,522
81.46,544
81.53,553
81.6,571
81.67,576
81.74,628
81.81,710
81.88,802
81.95,908
82.02,1069
82.09,1054
82.16,943
82.23,756
82.3,697
82.37,637
82.44,624
82.51,596
82.58,558
82.65,503
82.72,499
82.79,519
82.86,508
82.93,467
83,470
83.07,498
83.14,498
83.21,467
83.28,473
83.35,424
83.42,506
83.49,468
83.56,457
83.63,415
83.7,462
83.77,462
83.84,416
83.91,482
83.98,465
84.05,440
84.12,458
84.19,478
84.26,459
84.33,465
84.4,468
84.47,472
84.54,482
84.61,451
84.68,485
84.75,471
84.82,492
84.89,454
84.96,482
85.03,502
85.1,466
85.17,509
85.24,490
85.31,447
85.38,501
85.45,489
85.52,474
85.59,484
85.66,479
85.73,508
85.8,526
85.87,538
85.94,521
86.01,492
86.08,509
86.15,512
86.22,511
86.29,493
86.36,475
86.43,427
86.5,501
86.57,448
86.64,463
86.71,468
86.78,503
86.85,466
86.92,483
86.99,476
87.06,456
87.13,471
87.2,501
87.27,466
87.34,437
87.41,481
87.48,428
87.55,475
87.62,469
87.69,449
87.76,450
87.83,492
87.9,497
87.97,512
88.04,497
88.11,484
88.18,458
88.25,468
88.32,482
88.39,426
88.46,491
88.53,437
88.6,486
88.67,507
88.74,458
88.81,480
88.88,475
88.95,470
89.02,482
89.09,533
89.16,462
89.23,460
89.3,522
89.37,502
89.44,538
89.51,513
89.58,474
89.65,492
89.72,517
89.79,522
89.86,559
89.93,547
90,615
90.07,530
90.14,593
90.21,590
90.28,591
90.35,611
90.42,604
90.49,649
90.56,651
90.63,676
90.7,702
90.77,698
90.84,586
90.91,631
90.98,599
91.05,567
91.12,538
91.19,498
91.26,521
91.33,573
91.4,540
91.47,551
91.54,525
91.61,557
91.68,552
91.75,562
91.82,564
91.89,602
91.96,634
92.03,691
92.1,741
92.17,836
92.24,933
92.31,1041
92.38,1119
92.45,1065
92.52,1075
92.59,1124
92.66,1195
92.73,1220
92.8,1212
92.87,1198
92.94,1046
93.01,1010
93.08,887
93.15,876
93.22,845
93.29,848
93.36,833
93.43,894
93.5,866
93.57,873
93.64,826
93.71,799
93.78,750
93.85,732
93.92,783
93.99,730
94.06,813
94.13,847
94.2,942
94.27,1024
94.34,1069
94.41,1174
94.48,1046
94.55,1063
94.62,913
94.69,805
94.76,803
94.83,759
94.9,644
94.97,659
95.04,626
95.11,594
95.18,562
95.25,564
95.32,572
95.39,533
95.46,587
95.53,538
95.6,542
95.67,575
95.74,547
95.81,520
95.88,494
95.95,526
96.02,496
96.09,487
96.16,455
96.23,449
96.3,490
96.37,483
96.44,459
96.51,447
96.58,448
96.65,456
96.72,460
96.79,457
96.86,474
96.93,453
97,447
97.07,466
97.14,468
97.21,450
97.28,452
97.35,520
97.42,465
97.49,439
97.56,441
97.63,469
97.7,455
97.77,420
97.84,474
97.91,450
97.98,456
98.05,485
98.12,468
98.19,477
98.26,492
98.33,489
98.4,537
98.47,538
98.54,567
98.61,551
98.68,506
98.75,491
98.82,473
98.89,496
98.96,481
99.03,523
99.1,484
99.17,505
99.24,480
99.31,464
99.38,469
99.45,468
99.52,482
99.59,460
99.66,483
99.73,521
99.8,465
99.87,478
99.94,477
100.01,505
100.08,544
100.15,538
100.22,514
100.29,580
100.36,567
100.43,589
100.5,531
100.57,546
100.64,499
100.71,500
100.78,499
100.85,539
100.92,481
100.99,456
101.06,465
101.13,482
101.2,444
101.27,480
101.34,499
101.41,466
101.48,500
101.55,446
101.62,487
101.69,492
101.76,498
101.83,472
101.9,444
101.97,484
102.04,484
102.11,475
102.18,463
102.25,463
102.32,440
102.39,461
102.46,469
102.53,455
102.6,542
102.67,452
102.74,521
102.81,504
102.88,506
102.95,551
103.02,589
103.09,577
103.16,618
103.23,581
103.3,555
103.37,559
103.44,566
103.51,534
103.58,507
103.65,519
103.72,514
103.79,467
103.86,461
103.93,507
104,491
104.07,477
104.14,488
104.21,489
104.28,483
104.35,466
104.42,531
104.49,509
104.56,533
104.63,542
104.7,564
104.77,489
104.84,515
104.91,544
104.98,525
105.05,524
105.12,511
105.19,530
105.26,520
105.33,526
105.4,569
105.47,555
105.54,611
105.61,614
105.68,623
105.69,692