File: data/xrd_icdd_PDF/00-073-0268 (PD3).csv
20,100
20.06116,80
20.12231,75
20.18347,90
20.24462,98
20.30578,91
20.36693,95
20.42809,94
20.48924,97
20.5504,95
20.61155,99
20.67271,91
20.73386,89
20.79502,78
20.85617,66
20.91733,97
20.97848,97
21.03964,101
21.10079,88
21.16195,85
21.2231,101
21.28426,78
21.34541,100
21.40657,88
21.46772,111
21.52888,88
21.59003,89
21.65119,99
21.71234,88
21.7735,85
21.83465,79
21.89581,78
21.95697,97
22.01812,92
22.07928,73
22.14043,93
22.20159,92
22.26274,94
22.3239,97
22.38505,80
22.44621,76
22.50736,88
22.56852,86
22.62967,101
22.69083,109
22.75198,114
22.81314,101
22.87429,93
22.93545,102
22.9966,114
23.05776,97
23.11891,139
23.18007,148
23.24122,208
23.30238,337
23.36353,682
23.42469,1483
23.48584,1633
23.547,938
23.60815,377
23.66931,241
23.73046,176
23.79162,152
23.85278,101
23.91393,109
23.97509,118
24.03624,87
24.0974,70
24.15855,78
24.21971,89
24.28086,90
24.34202,71
24.40317,92
24.46433,79
24.52548,94
24.58664,79
24.64779,89
24.70895,86
24.7701,77
24.83126,69
24.89241,79
24.95357,91
25.01472,56
25.07588,82
25.13703,78
25.19819,85
25.25934,78
25.3205,90
25.38165,66
25.44281,61
25.50396,77
25.56512,76
25.62628,99
25.68743,71
25.74859,73
25.80974,81
25.8709,61
25.93205,70
25.99321,68
26.05436,53
26.11552,78
26.17667,56
26.23783,67
26.29898,80
26.36014,76
26.42129,79
26.48245,95
26.5436,73
26.60476,59
26.66591,71
26.72707,74
26.78822,78
26.84938,83
26.91053,53
26.97169,62
27.03284,69
27.094,54
27.15515,65
27.21631,54
27.27746,78
27.33862,65
27.39977,61
27.46093,61
27.52209,75
27.58324,65
27.6444,52
27.70555,69
27.76671,70
27.82786,69
27.88902,56
27.95017,70
28.01133,72
28.07248,61
28.13364,54
28.19479,68
28.25595,61
28.3171,87
28.37826,60
28.43941,64
28.50057,56
28.56172,65
28.62288,69
28.68403,71
28.74519,71
28.80634,80
28.8675,57
28.92865,68
28.98981,56
29.05096,61
29.11212,67
29.17327,74
29.23443,55
29.29558,60
29.35674,43
29.4179,68
29.47905,65
29.54021,71
29.60136,60
29.66252,54
29.72367,63
29.78483,57
29.84598,62
29.90714,65
29.96829,68
30.02945,51
30.0906,66
30.15176,77
30.21291,54
30.27407,65
30.33522,55
30.39638,61
30.45753,61
30.51869,76
30.57984,57
30.641,43
30.70215,50
30.76331,65
30.82446,75
30.88562,65
30.94677,65
31.00793,51
31.06908,67
31.13024,52
31.19139,57
31.25255,54
31.31371,57
31.37486,59
31.43602,42
31.49717,65
31.55833,64
31.61948,49
31.68064,62
31.74179,58
31.80295,66
31.8641,49
31.92526,62
31.98641,53
32.04757,68
32.10872,60
32.16988,60
32.23103,66
32.29219,72
32.35334,81
32.4145,72
32.47565,86
32.53681,79
32.59796,95
32.65912,83
32.72027,87
32.78143,85
32.84258,108
32.90374,110
32.96489,122
33.02605,147
33.0872,187
33.14836,284
33.20952,424
33.27067,793
33.33183,1773
33.39298,3050
33.45414,3064
33.51529,2058
33.57645,1005
33.6376,547
33.69876,266
33.75991,189
33.82107,121
33.88222,120
33.94338,107
34.00453,109
34.06569,85
34.12684,92
34.188,69
34.24915,61
34.31031,76
34.37146,68
34.43262,61
34.49377,49
34.55493,66
34.61608,64
34.67724,67
34.73839,59
34.79955,54
34.8607,64
34.92186,52
34.98302,40
35.04417,48
35.10533,53
35.16648,55
35.22764,46
35.28879,49
35.34995,49
35.4111,50
35.47226,47
35.53341,57
35.59457,59
35.65572,41
35.71688,36
35.77803,51
35.83919,40
35.90034,57
35.9615,48
36.02265,41
36.08381,47
36.14496,56
36.20612,44
36.26727,46
36.32843,39
36.38958,39
36.45074,36
36.51189,35
36.57305,49
36.6342,42
36.69536,31
36.75651,42
36.81767,39
36.87883,48
36.93998,41
37.00114,47
37.06229,58
37.12345,33
37.1846,48
37.24576,30
37.30691,44
37.36807,46
37.42922,45
37.49038,38
37.55153,44
37.61269,36
37.67384,34
37.735,46
37.79615,43
37.85731,45
37.91846,34
37.97962,34
38.04077,45
38.10193,49
38.16308,51
38.22424,42
38.28539,40
38.34655,39
38.4077,34
38.46886,31
38.53001,33
38.59117,49
38.65232,26
38.71348,36
38.77464,43
38.83579,31
38.89695,42
38.9581,32
39.01926,44
39.08041,37
39.14157,42
39.20272,35
39.26388,47
39.32503,41
39.38619,53
39.44734,47
39.5085,49
39.56965,39
39.63081,43
39.69196,41
39.75312,43
39.81427,49
39.87543,45
39.93658,43
39.99774,44
40.05889,42
40.12005,42
40.1812,42
40.24236,53
40.30351,49
40.36467,61
40.42582,49
40.48698,56
40.54813,65
40.60929,55
40.67045,54
40.7316,63
40.79276,85
40.85391,98
40.91507,104
40.97622,175
41.03738,273
41.09853,472
41.15969,881
41.22084,1261
41.282,1149
41.34315,810
41.40431,520
41.46546,249
41.52662,158
41.58777,89
41.64893,88
41.71008,63
41.77124,62
41.83239,53
41.89355,48
41.9547,40
42.01586,39
42.07701,48
42.13817,49
42.19932,39
42.26048,39
42.32163,32
42.38279,36
42.44395,37
42.5051,35
42.56626,46
42.62741,36
42.68857,31
42.74972,41
42.81088,43
42.87203,31
42.93319,37
42.99434,41
43.0555,40
43.11665,32
43.17781,35
43.23896,46
43.30012,35
43.36127,43
43.42243,29
43.48358,38
43.54474,38
43.60589,35
43.66705,42
43.7282,43
43.78936,37
43.85051,34
43.91167,31
43.97282,37
44.03398,32
44.09513,30
44.15629,54
44.21744,33
44.2786,28
44.33976,30
44.40091,32
44.46207,44
44.52322,28
44.58438,29
44.64553,44
44.70669,23
44.76784,24
44.829,29
44.89015,26
44.95131,25
45.01246,27
45.07362,37
45.13477,40
45.19593,31
45.25708,36
45.31824,38
45.37939,33
45.44055,32
45.5017,29
45.56286,35
45.62401,39
45.68517,35
45.74632,32
45.80748,40
45.86863,33
45.92979,29
45.99094,29
46.0521,23
46.11325,32
46.17441,31
46.23557,22
46.29672,36
46.35788,41
46.41903,45
46.48019,50
46.54134,30
46.6025,36
46.66365,32
46.72481,46
46.78596,39
46.84712,42
46.90827,37
46.96943,44
47.03058,46
47.09174,47
47.15289,39
47.21405,42
47.2752,37
47.33636,49
47.39751,50
47.45867,31
47.51982,66
47.58098,87
47.64213,108
47.70329,147
47.76444,237
47.8256,386
47.88675,597
47.94791,824
48.00906,853
48.07022,755
48.13138,561
48.19253,343
48.25369,202
48.31484,148
48.376,103
48.43715,70
48.49831,56
48.55946,44
48.62062,52
48.68177,45
48.74293,41
48.80408,42
48.86524,39
48.92639,34
48.98755,41
49.0487,39
49.10986,36
49.17101,34
49.23217,21
49.29332,39
49.35448,34
49.41563,23
49.47679,32
49.53794,28
49.5991,30
49.66025,18
49.72141,27
49.78256,30
49.84372,30
49.90487,20
49.96603,23
50.02719,27
50.08834,36
50.1495,25
50.21065,34
50.27181,42
50.33296,26
50.39412,20
50.45527,24
50.51643,29
50.57758,32
50.63874,25
50.69989,31
50.76105,23
50.8222,29
50.88336,28
50.94451,21
51.00567,26
51.06682,31
51.12798,23
51.18913,23
51.25029,29
51.31144,29
51.3726,27
51.43375,29
51.49491,24
51.55606,36
51.61722,26
51.67837,27
51.73953,27
51.80069,35
51.86184,20
51.923,32
51.98415,29
52.04531,30
52.10646,31
52.16762,33
52.22877,27
52.28993,26
52.35108,34
52.41224,37
52.47339,33
52.53455,16
52.5957,31
52.65686,26
52.71801,37
52.77917,37
52.84032,22
52.90148,29
52.96263,26
53.02379,31
53.08494,21
53.1461,33
53.20725,34
53.26841,37
53.32956,23
53.39072,36
53.45187,41
53.51303,37
53.57418,40
53.63534,73
53.6965,69
53.75765,76
53.81881,116
53.87996,162
53.94112,261
54.00227,441
54.06343,455
54.12458,449
54.18574,402
54.24689,285
54.30805,174
54.3692,120
54.43036,77
54.49151,63
54.55267,57
54.61382,37
54.67498,48
54.73613,34
54.79729,21
54.85844,30
54.9196,27
54.98075,31
55.04191,28
55.10306,23
55.16422,30
55.22537,27
55.28653,23
55.34768,25
55.40884,31
55.46999,26
55.53115,17
55.59231,25
55.65346,25
55.71462,30
55.77577,35
55.83693,28
55.89808,23
55.95924,11
56.02039,21
56.08155,24
56.1427,27
56.20386,18
56.26501,19
56.32617,20
56.38732,24
56.44848,25
56.50963,25
56.57079,23
56.63194,18
56.6931,23
56.75425,23
56.81541,21
56.87656,13
56.93772,27
56.99887,21
57.06003,23
57.12118,25
57.18234,18
57.24349,23
57.30465,22
57.3658,30
57.42696,24
57.48812,15
57.54927,36
57.61043,30
57.67158,25
57.73274,27
57.79389,30
57.85505,22
57.9162,30
57.97736,32
58.03851,25
58.09967,33
58.16082,35
58.22198,21
58.28313,25
58.34429,34
58.40544,35
58.4666,26
58.52775,24
58.58891,30
58.65006,26
58.71122,26
58.77237,31
58.83353,21
58.89468,41
58.95584,36
59.01699,42
59.07815,45
59.1393,54
59.20046,63
59.26161,78
59.32277,100
59.38393,137
59.44508,160
59.50624,261
59.56739,436
59.62855,618
59.6897,774
59.75086,761
59.81201,695
59.87317,573
59.93432,410
59.99548,269
60.05663,172
60.11779,150
60.17894,84
60.2401,72
60.30125,40
60.36241,30
60.42356,39
60.48472,46
60.54587,39
60.60703,40
60.66818,26
60.72934,36
60.79049,22
60.85165,23
60.9128,29
60.97396,27
61.03511,31
61.09627,27
61.15743,19
61.21858,21
61.27974,21
61.34089,33
61.40205,19
61.4632,20
61.52436,19
61.58551,27
61.64667,20
61.70782,14
61.76898,19
61.83013,30
61.89129,24
61.95244,18
62.0136,21
62.07475,27
62.13591,16
62.19706,24
62.25822,20
62.31937,10
62.38053,19
62.44168,26
62.50284,29
62.56399,10
62.62515,22
62.6863,12
62.74746,26
62.80861,18
62.86977,17
62.93092,16
62.99208,19
63.05324,22
63.11439,20
63.17555,17
63.2367,25
63.29786,21
63.35901,18
63.42017,18
63.48132,23
63.54248,21
63.60363,26
63.66479,15
63.72594,13
63.7871,17
63.84825,20
63.90941,21
63.97056,31
64.03172,16
64.09287,18
64.15403,15
64.21518,17
64.27634,25
64.33749,17
64.39865,21
64.4598,17
64.52096,14
64.58211,18
64.64327,25
64.70442,15
64.76558,14
64.82673,10
64.88789,17
64.94905,21
65.0102,18
65.07136,22
65.13251,14
65.19367,20
65.25482,17
65.31598,18
65.37713,21
65.43829,14
65.49944,25
65.5606,12
65.62175,16
65.68291,12
65.74406,20
65.80522,14
65.86637,18
65.92753,10
65.98868,16
66.04984,14
66.11099,25
66.17215,11
66.2333,21
66.29446,15
66.35561,15
66.41677,14
66.47792,13
66.53908,19
66.60023,12
66.66139,11
66.72254,15
66.7837,18
66.84486,15
66.90601,12
66.96717,23
67.02832,20
67.08948,15
67.15063,10
67.21179,11
67.27294,13
67.3341,29
67.39525,28
67.45641,17
67.51756,20
67.57872,14
67.63987,17
67.70103,18
67.76218,22
67.82334,19
67.88449,16
67.94565,17
68.0068,24
68.06796,22
68.12911,24
68.19027,18
68.25142,25
68.31258,26
68.37373,21
68.43489,23
68.49604,18
68.5572,23
68.61835,12
68.67951,19
68.74067,24
68.80182,23
68.86298,22
68.92413,17
68.98529,26
69.04644,18
69.1076,22
69.16875,27
69.22991,28
69.29106,24
69.35222,21
69.41337,27
69.47453,33
69.53568,24
69.59684,38
69.65799,41
69.71915,47
69.7803,51
69.84146,94
69.90261,120
69.96377,170
70.02492,209
70.08608,302
70.14723,355
70.20839,390
70.26954,353
70.3307,279
70.39185,230
70.45301,165
70.51417,135
70.57532,76
70.63648,67
70.69763,50
70.75879,45
70.81994,41
70.8811,27
70.94225,27
71.00341,23
71.06456,21
71.12572,27
71.18687,30
71.24803,20
71.30918,17
71.37034,24
71.43149,15
71.49265,14
71.5538,17
71.61496,18
71.67611,15
71.73727,25
71.79842,20
71.85958,19
71.92073,16
71.98189,19
72.04304,19
72.1042,16
72.16535,19
72.22651,24
72.28766,12
72.34882,12
72.40998,22
72.47113,10
72.53229,27
72.59344,16
72.6546,9
72.71575,15
72.77691,18
72.83806,18
72.89922,19
72.96037,18
73.02153,22
73.08268,22
73.14384,21
73.20499,16
73.26615,19
73.3273,18
73.38846,16
73.44961,11
73.51077,15
73.57192,15
73.63308,17
73.69423,18
73.75539,19
73.81654,21
73.8777,20
73.93885,20
74.00001,12
74.06116,22
74.12232,18
74.18347,17
74.24463,22
74.30579,26
74.36694,19
74.4281,26
74.48925,21
74.55041,25
74.61156,34
74.67272,36
74.73387,49
74.79503,45
74.85618,55
74.91734,85
74.97849,99
75.03965,161
75.1008,160
75.16196,173
75.22311,197
75.28427,148
75.34542,129
75.40658,91
75.46773,79
75.52889,65
75.59004,49
75.6512,40
75.71235,34
75.77351,25
75.83466,23
75.89582,27
75.95697,28
76.01813,20
76.07928,20
76.14044,9
76.2016,21
76.26275,14
76.32391,21
76.38506,20
76.44622,17
76.50737,23
76.56853,17
76.62968,16
76.69084,16
76.75199,17
76.81315,14
76.8743,30
76.93546,20
76.99661,20
77.05777,15
77.11892,16
77.18008,14
77.24123,18
77.30239,18
77.36354,17
77.4247,20
77.48585,22
77.54701,17
77.60816,26
77.66932,19
77.73047,14
77.79163,17
77.85278,19
77.91394,27
77.97509,17
78.03625,18
78.09741,16
78.15856,15
78.21972,11
78.28087,13
78.34203,19
78.40318,18
78.46434,20
78.52549,26
78.58665,11
78.6478,26
78.70896,21
78.77011,14
78.83127,22
78.89242,24
78.95358,26
79.01473,23
79.07589,22
79.13704,31
79.1982,28
79.25935,23
79.32051,28
79.38166,20
79.44282,42
79.50397,48
79.56513,58
79.62628,72
79.68744,85
79.74859,129
79.80975,181
79.87091,215
79.93206,229
79.99322,247
80.05437,231
80.11553,208
80.17668,173
80.23784,159
80.29899,143
80.36015,109
80.4213,76
80.48246,60
80.54361,46
80.60477,41
80.66592,34
80.72708,23
80.78823,30
80.84939,22
80.91054,24
80.9717,22
81.03285,29
81.09401,18
81.15516,23
81.21632,18
81.27747,23
81.33863,18
81.39978,7
81.46094,13
81.52209,14
81.58325,26
81.6444,21
81.70556,19
81.76672,24
81.82787,14
81.88903,16
81.95018,10
82.01134,10
82.07249,14
82.13365,22
82.1948,20
82.25596,15
82.31711,13
82.37827,16
82.43942,13
82.50058,19
82.56173,22
82.62289,11
82.68404,18
82.7452,16
82.80635,14
82.86751,24
82.92866,19
82.98982,18
83.05097,10
83.11213,19
83.17328,14
83.23444,17
83.29559,17
83.35675,15
83.4179,26
83.47906,18
83.54021,25
83.60137,25
83.66253,16
83.72368,16
83.78484,18
83.84599,23
83.90715,30
83.9683,16
84.02946,22
84.09061,22
84.15177,22
84.21292,36
84.27408,40
84.33523,38
84.39639,72
84.45754,69
84.5187,85
84.57985,101
84.64101,129
84.70216,175
84.76332,169
84.82447,166
84.88563,156
84.94678,140
85.00794,126
85.06909,104
85.13025,97
85.1914,85
85.25256,50
85.31371,49
85.37487,33
85.43602,30
85.49718,33
85.55834,34
85.61949,19
85.68065,25
85.7418,20
85.80296,21
85.86411,28
85.92527,22
85.98642,25
86.04758,19
86.10873,24
86.16989,19
86.23104,18
86.2922,15
86.35335,11
86.41451,20
86.47566,16
86.53682,27
86.59797,16
86.65913,14
86.72028,16
86.78144,18
86.84259,23
86.90375,22
86.9649,17
87.02606,19
87.08721,14
87.14837,14
87.20952,16
87.27068,15
87.33184,19
87.39299,16
87.45415,16
87.5153,23
87.57646,7
87.63761,20
87.69877,20
87.75992,13
87.82108,14
87.88223,17
87.94339,22
88.00454,16
88.0657,19
88.12685,16
88.18801,11
88.24916,13
88.31032,10
88.37147,23
88.43263,21
88.49378,21
88.55494,12
88.61609,16
88.67725,21
88.7384,15
88.79956,27
88.86071,27
88.92187,21
88.98302,26
89.04418,24
89.10533,34
89.16649,44
89.22765,47
89.2888,61
89.34996,87
89.41111,109
89.47227,111
89.53342,102
89.59458,89
89.65573,104
89.71689,88
89.77804,80
89.8392,79
89.90035,57
89.96151,49
90.02266,33
90.08382,24
90.14497,34
90.20613,27
90.26728,24
90.32844,29
90.38959,19
90.45075,16
90.5119,14
90.57306,22
90.63421,13
90.69537,15
90.75652,22
90.81768,21
90.87883,23
90.93999,12
91.00114,16
91.0623,11
91.12346,9
91.18461,11
91.24577,20
91.30692,17
91.36808,17
91.42923,18
91.49039,21
91.55154,15
91.6127,12
91.67385,21
91.73501,12
91.79616,14
91.85732,16
91.91847,18
91.97963,11
92.04078,15
92.10194,27
92.16309,16
92.22425,12
92.2854,18
92.34656,15
92.40771,18
92.46887,17
92.53002,13
92.59118,12
92.65233,19
92.71349,13
92.77464,20
92.8358,13
92.89695,14
92.95811,18
93.01927,17
93.08042,19
93.14158,15
93.20273,21
93.26389,20
93.32504,14
93.3862,14
93.44735,22
93.50851,17
93.56966,26
93.63082,18
93.69197,27
93.75313,11
93.81428,28
93.87544,37
93.93659,37
93.99775,44
94.0589,70
94.12006,54
94.18121,74
94.24237,69
94.30352,82
94.36468,81
94.42583,68
94.48699,51
94.54814,55
94.6093,51
94.67045,38
94.73161,45
94.79276,32
94.85392,25
94.91508,25
94.97623,18
95.03739,26
95.09854,28
95.1597,9
95.22085,16
95.28201,21
95.34316,20
95.40432,17
95.46547,20
95.52663,9
95.58778,18
95.64894,17
95.71009,19
95.77125,15
95.8324,16
95.89356,15
95.95471,23
96.01587,15
96.07702,15
96.13818,11
96.19933,16
96.26049,19
96.32164,18
96.3828,15
96.44395,20
96.50511,20
96.56626,15
96.62742,20
96.68858,11
96.74973,10
96.81089,11
96.87204,12
96.9332,14
96.99435,12
97.05551,10
97.11666,15
97.17782,20
97.23897,15
97.30013,13
97.36128,16
97.42244,16
97.48359,13
97.54475,16
97.6059,22
97.66706,26
97.72821,27
97.78937,19
97.85052,32
97.91168,23
97.97283,22
98.03399,20
98.09514,35
98.1563,27
98.21745,34
98.27861,36
98.33976,35
98.40092,65
98.46207,48
98.52323,69
98.58439,98
98.64554,111
98.7067,143
98.76785,180
98.82901,215
98.89016,256
98.95132,239
99.01247,278
99.07363,244
99.13478,218
99.19594,215
99.25709,200
99.31825,182
99.3794,168
99.44056,135
99.50171,98
99.56287,94
99.62402,69
99.68518,62
99.74633,56
99.80749,37
99.86864,27
99.9298,37
99.99095,22