File: data/xrd_icdd_PDF/00-066-0829 (PD3).csv
20.01671,307.9915
20.08271,345.355
20.14871,335.569
20.21471,364.0281
20.2807,353.9111
20.3467,347.6443
20.4127,329.8555
20.4787,339.7795
20.5447,353.1461
20.61069,367.3955
20.67669,320.2762
20.74269,366.2667
20.80869,339.7192
20.87469,353.0706
20.94068,348.9899
21.00668,338.7597
21.07268,354.3824
21.13868,320.8424
21.20468,340.5455
21.27067,333.5099
21.33667,356.1374
21.40267,324.6377
21.46867,369.0134
21.53467,334.2499
21.60066,360.8644
21.66666,380.1983
21.73266,361.7221
21.79866,363.7903
21.86466,432.8959
21.93065,596.4091
21.99665,1057.44
22.06265,1758.49
22.12865,1732.39
22.19465,1965.695
22.26064,3029.3
22.32664,1706.88
22.39264,537.1415
22.45864,431.3585
22.52464,367.5896
22.59063,347.277
22.65663,296.0006
22.72263,311.5032
22.78863,338.6382
22.85463,315.599
22.92062,332.3992
22.98662,341.2119
23.05262,318.1074
23.11862,303.4354
23.18462,333.1036
23.25061,328.6195
23.31661,305.7771
23.38261,318.8957
23.44861,316.1119
23.51461,320.179
23.5806,321.7313
23.6466,308.6727
23.7126,292.3369
23.7786,301.148
23.8446,298.5381
23.91059,305.6562
23.97659,332.5519
24.04259,313.1362
24.10859,299.8886
24.17459,306.5843
24.24058,282.7466
24.30658,305.7136
24.37258,277.4077
24.43858,277.7768
24.50458,302.4746
24.57057,309.7022
24.63657,300.3985
24.70257,313.4945
24.76857,281.5134
24.83457,292.5426
24.90056,274.4187
24.96656,294.2807
25.03256,270.4333
25.09856,280.1684
25.16456,279.3342
25.23055,250.0408
25.29655,290.4315
25.36255,276.3849
25.42855,281.907
25.49455,279.0992
25.56054,254.2215
25.62654,286.0722
25.69254,296.75
25.75854,284.1993
25.82454,283.374
25.89053,272.4916
25.95653,254.1349
26.02253,282.1069
26.08853,254.8933
26.15453,267.1093
26.22052,264.1492
26.28652,267.7032
26.35252,261.8817
26.41852,271.4962
26.48452,266.2571
26.55051,253.5792
26.61651,272.4554
26.68251,277.6619
26.74851,269.2634
26.81451,257.0222
26.8805,259.7402
26.9465,272.5848
27.0125,288.0453
27.0785,249.837
27.1445,243.1927
27.21049,271.1208
27.27649,273.4682
27.34249,268.486
27.40849,275.4162
27.47449,261.0007
27.54048,242.2346
27.60648,310.3402
27.67248,281.13
27.73848,262.3757
27.80448,241.7708
27.87047,252.7786
27.93647,285.1714
28.00247,242.3467
28.06847,260.5255
28.13447,281.6806
28.20046,305.478
28.26646,268.8766
28.33246,276.2572
28.39846,263.4454
28.46446,290.147
28.53045,284.094
28.59645,233.4155
28.66245,257.8112
28.72845,268.9368
28.79445,247.1862
28.86044,240.3886
28.92644,273.5871
28.99244,249.0522
29.05844,253.3925
29.12444,234.8027
29.19043,227.4368
29.25643,250.7084
29.32243,234.4379
29.38843,238.4832
29.45443,225.9185
29.52042,228.8465
29.58642,254.6611
29.65242,239.2342
29.71842,241.746
29.78442,227.7741
29.85041,267.1857
29.91641,263.5248
29.98241,240.9958
30.04841,249.9032
30.11441,251.5823
30.1804,265.5758
30.2464,256.4632
30.3124,278.778
30.3784,249.8199
30.4444,256.1859
30.51039,286.1425
30.57639,314.8184
30.64239,318.134
30.70839,319.4424
30.77439,308.5499
30.84038,349.6539
30.90638,365.1092
30.97238,336.1979
31.03838,392.8882
31.10438,391.7794
31.17037,464.0701
31.23637,571.6964
31.30237,816.0703
31.36837,1460.59
31.43437,3448.9
31.50036,10653.057
31.56636,14142
31.63236,11873.4
31.69836,7987.48
31.76436,3847.73
31.83035,1192.95
31.89635,606.2745
31.96235,442.651
32.02835,382.4388
32.09435,346.4455
32.16034,327.0579
32.22634,315.5715
32.29234,306.4451
32.35834,294.202
32.42434,307.553
32.49033,279.5476
32.55633,284.9765
32.62233,269.3071
32.68833,298.4744
32.75433,298.8944
32.82032,277.2793
32.88632,262.055
32.95232,303.8949
33.01832,269.0403
33.08432,243.8611
33.15031,269.7126
33.21631,243.2672
33.28231,251.7682
33.34831,233.9814
33.41431,261.8992
33.4803,275.9583
33.5463,233.3972
33.6123,248.0871
33.6783,262.8223
33.7443,262.2034
33.81029,256.3826
33.87629,235.2864
33.94229,253.9499
34.00829,242.9587
34.07429,251.2149
34.14028,220.577
34.20628,264.911
34.27228,277.6013
34.33828,277.1173
34.40428,266.6967
34.47027,233.7783
34.53627,253.6738
34.60227,231.1085
34.66827,258.0806
34.73427,229.1911
34.80026,228.9437
34.86626,249.8805
34.93226,217.7268
34.99826,239.535
35.06426,225.9539
35.13025,227.5809
35.19625,230.6445
35.26225,248.1032
35.32825,216.4971
35.39425,239.8395
35.46024,222.3455
35.52624,252.9568
35.59224,214.4732
35.65824,216.9355
35.72424,226.7111
35.79023,230.315
35.85623,241.0073
35.92223,204.0717
35.98823,220.2996
36.05423,216.0035
36.12022,231.3714
36.18622,223.35
36.25222,202.7721
36.31822,223.4468
36.38422,186.4336
36.45021,234.1972
36.51621,230.16
36.58221,206.8553
36.64821,215.4595
36.71421,228.2531
36.7802,234.8959
36.8462,221.7702
36.9122,201.0818
36.9782,216.0104
37.0442,204.8013
37.11019,206.4498
37.17619,220.4676
37.24219,221.3922
37.30819,201.4979
37.37419,213.4394
37.44018,206.4863
37.50618,243.7882
37.57218,217.3215
37.63818,237.5358
37.70418,246.6351
37.77017,217.9897
37.83617,213.342
37.90217,204.16
37.96817,245.8074
38.03417,213.3312
38.10016,227.0855
38.16616,216.4629
38.23216,282.0817
38.29816,226.8626
38.36416,249.7828
38.43015,233.1285
38.49615,298.4799
38.56215,268.2808
38.62815,336.0655
38.69415,389.6446
38.76014,580.5449
38.82614,1077.37
38.89214,3761.4
38.95814,4723.26
39.02414,3258.44
39.09013,1178.07
39.15613,401.5918
39.22213,292.9995
39.28813,237.6956
39.35413,241.8889
39.42012,230.3145
39.48612,256.1167
39.55212,216.5668
39.61812,256.2338
39.68412,212.3811
39.75011,213.7862
39.81611,218.6218
39.88211,216.0254
39.94811,216.541
40.01411,213.6495
40.0801,202.8419
40.1461,218.9705
40.2121,212.8805
40.2781,197.8009
40.3441,223.2619
40.41009,212.3759
40.47609,240.9991
40.54209,214.8762
40.60809,199.0147
40.67409,225.7788
40.74008,204.2547
40.80608,178.2844
40.87208,208.6081
40.93808,219.2138
41.00408,177.0018
41.07007,187.7786
41.13607,204.2605
41.20207,211.7545
41.26807,219.4482
41.33407,208.6523
41.40006,199.5885
41.46606,180.2282
41.53206,214.885
41.59806,210.2805
41.66406,207.4127
41.73005,203.9138
41.79605,199.726
41.86205,190.564
41.92805,201.6174
41.99405,190.7274
42.06004,199.5668
42.12604,231.2511
42.19204,198.3223
42.25804,202.5746
42.32404,199.258
42.39003,189.7026
42.45603,194.1345
42.52203,209.2561
42.58803,217.2248
42.65403,217.8808
42.72002,178.2614
42.78602,176.1251
42.85202,193.9587
42.91802,181.3475
42.98402,197.9746
43.05001,197.3271
43.11601,173.6449
43.18201,203.7385
43.24801,195.5899
43.31401,214.46
43.38,180.4248
43.446,204.276
43.512,190.0219
43.578,193.8132
43.644,194.819
43.70999,207.8371
43.77599,202.1639
43.84199,231.5393
43.90799,228.6329
43.97399,205.9801
44.03998,199.8387
44.10598,202.9132
44.17198,226.5451
44.23798,226.057
44.30398,213.0126
44.36997,212.062
44.43597,231.7647
44.50197,210.1019
44.56797,242.7967
44.63397,231.9483
44.69996,272.5597
44.76596,342.2397
44.83196,444.8344
44.89796,974.553
44.96396,1860.54
45.02995,1517.03
45.09595,1513.386
45.16195,1127.62
45.22795,1120.6
45.29395,1445.32
45.35994,2904.51
45.42594,4054.8
45.49194,2126.59
45.55794,1661.9
45.62394,525.8625
45.68993,332.5887
45.75593,283.7561
45.82193,231.6264
45.88793,221.3345
45.95393,215.7249
46.01992,201.2541
46.08592,213.7615
46.15192,219.6834
46.21792,192.3312
46.28392,238.8874
46.34991,182.9638
46.41591,208.9641
46.48191,182.5726
46.54791,174.7986
46.61391,204.5923
46.6799,184.9336
46.7459,190.5538
46.8119,186.8036
46.8779,204.3361
46.9439,196.466
47.00989,172.6206
47.07589,194.0223
47.14189,196.6997
47.20789,199.5154
47.27389,179.3553
47.33988,191.1696
47.40588,181.2314
47.47188,175.3081
47.53788,190.7408
47.60388,205.5637
47.66987,182.1552
47.73587,177.869
47.80187,178.8523
47.86787,190.4022
47.93387,182.7528
47.99986,192.0169
48.06586,187.7035
48.13186,172.1928
48.19786,190.8167
48.26386,176.7319
48.32985,173.4491
48.39585,172.7561
48.46185,178.4228
48.52785,176.528
48.59385,186.5239
48.65984,179.255
48.72584,180.9852
48.79184,173.1066
48.85784,209.7162
48.92384,169.1593
48.98983,181.5889
49.05583,160.2467
49.12183,176.8398
49.18783,160.7607
49.25383,185.1697
49.31982,184.4055
49.38582,188.9701
49.45182,194.2203
49.51782,201.9889
49.58382,206.4744
49.64981,181.8702
49.71581,184.5875
49.78181,200.0719
49.84781,191.8472
49.91381,192.067
49.9798,179.8223
50.0458,171.0191
50.1118,181.7254
50.1778,189.6809
50.2438,179.001
50.30979,187.8988
50.37579,195.4067
50.44179,194.4207
50.50779,197.3746
50.57379,257.0296
50.63978,335.1264
50.70578,679.8747
50.77178,558.989
50.83778,577.0412
50.90378,601.9622
50.96977,657.697
51.03577,1022.49
51.10177,940.3137
51.16777,854.8838
51.23377,516.3165
51.29976,382.9875
51.36576,257.9642
51.43176,178.4717
51.49776,186.8288
51.56376,186.925
51.62975,174.0103
51.69575,175.4691
51.76175,172.2008
51.82775,182.236
51.89375,179.5908
51.95974,179.6127
52.02574,164.4102
52.09174,184.1069
52.15774,189.8884
52.22374,185.6343
52.28973,181.6259
52.35573,185.0427
52.42173,181.893
52.48773,188.1896
52.55373,175.6431
52.61972,167.4624
52.68572,157.7379
52.75172,178.2846
52.81772,177.8492
52.88372,174.7028
52.94971,171.5421
53.01571,159.887
53.08171,188.6571
53.14771,180.3893
53.21371,170.7282
53.2797,187.0374
53.3457,182.0926
53.4117,158.1852
53.4777,183.8534
53.5437,167.4763
53.60969,168.8852
53.67569,183.9501
53.74169,199.5574
53.80769,170.7193
53.87369,149.0927
53.93968,165.0389
54.00568,181.9244
54.07168,165.5722
54.13768,178.0928
54.20368,169.6406
54.26967,190.5204
54.33567,182.6027
54.40167,200.5069
54.46767,181.1874
54.53367,185.0398
54.59966,199.0261
54.66566,183.362
54.73166,202.5943
54.79766,199.6891
54.86366,174.838
54.92965,196.9848
54.99565,198.5717
55.06165,193.3022
55.12765,194.031
55.19365,196.9526
55.25964,182.5427
55.32564,198.0065
55.39164,213.4084
55.45764,217.6996
55.52364,209.133
55.58963,210.4212
55.65563,233.6675
55.72163,286.312
55.78763,286.3685
55.85363,359.9223
55.91962,502.9162
55.98562,1316.417
56.05162,2133
56.11762,1629.09
56.18362,2156.06
56.24961,2703.16
56.31561,4722.85
56.38161,2225.63
56.44761,2340.32
56.51361,1416.9
56.5796,494.8488
56.6456,319.295
56.7116,286.25
56.7776,220.1826
56.8436,208.1005
56.90959,194.23
56.97559,182.692
57.04159,208.5522
57.10759,220.8639
57.17359,188.4803
57.23958,190.6163
57.30558,202.2959
57.37158,185.0778
57.43758,175.0193
57.50358,178.0534
57.56957,166.7647
57.63557,169.0139
57.70157,192.0519
57.76757,177.5016
57.83357,195.8699
57.89956,182.1235
57.96556,192.6031
58.03156,180.3735
58.09756,169.3638
58.16356,174.689
58.22955,180.8659
58.29555,162.0106
58.36155,172.7583
58.42755,184.8615
58.49355,168.1237
58.55954,183.9208
58.62554,178.1718
58.69154,176.7277
58.75754,166.8519
58.82354,163.5404
58.88953,156.876
58.95553,178.2713
59.02153,182.1245
59.08753,172.0417
59.15353,170.1548
59.21952,168.4655
59.28552,171.8577
59.35152,157.7997
59.41752,176.2748
59.48352,168.8133
59.54951,171.3751
59.61551,176.7922
59.68151,174.5196
59.74751,170.2234
59.81351,172.7365
59.8795,166.738
59.9455,151.4948
60.0115,150.813
60.0775,161.0959
60.1435,157.2079
60.20949,156.8144
60.27549,170.9973
60.34149,152.8673
60.40749,165.62
60.47349,154.9979
60.53948,164.6641
60.60548,165.9411
60.67148,186.6737
60.73748,176.2092
60.80348,160.3792
60.86947,166.2232
60.93547,188.6356
61.00147,165.1132
61.06747,153.9025
61.13347,171.9997
61.19946,185.3206
61.26546,169.2305
61.33146,172.6354
61.39746,164.0617
61.46346,171.7703
61.52945,151.6014
61.59545,157.5752
61.66145,167.8735
61.72745,182.3449
61.79345,145.0175
61.85944,159.052
61.92544,151.1628
61.99144,171.7763
62.05744,164.3975
62.12344,170.9906
62.18943,160.8135
62.25543,161.7223
62.32143,161.3872
62.38743,151.3872
62.45343,163.0737
62.51942,150.9919
62.58542,181.1479
62.65142,155.0122
62.71742,176.568
62.78342,160.7003
62.84941,177.517
62.91541,159.4444
62.98141,161.1059
63.04741,153.3787
63.11341,150.4765
63.1794,147.9919
63.2454,167.0081
63.3114,165.0978
63.3774,156.3951
63.4434,175.7357
63.50939,153.827
63.57539,153.2296
63.64139,172.4413
63.70739,165.2356
63.77339,170.2444
63.83938,144.3233
63.90538,182.9621
63.97138,172.3605
64.03738,178.1661
64.10338,172.1004
64.16937,171.1312
64.23537,162.1602
64.30137,168.5
64.36737,159.0967
64.43337,141.4872
64.49936,145.9049
64.56536,207.1048
64.63136,183.9394
64.69736,168.9317
64.76336,170.3183
64.82935,182.1399
64.89535,197.6149
64.96135,205.8635
65.02735,172.1322
65.09335,178.03
65.15934,187.8636
65.22534,194.5513
65.29134,196.5137
65.35734,184.3624
65.42334,217.175
65.48933,227.5135
65.55533,264.3081
65.62133,328.46
65.68733,537.5094
65.75333,1232.01
65.81932,1914.11
65.88532,1237.57
65.95132,1191.9
66.01732,1363.47
66.08332,1025.86
66.14931,1195.71
66.21531,688.6868
66.28131,563.3545
66.34731,602.6891
66.41331,315.4806
66.4793,229.5952
66.5453,203.733
66.6113,196.026
66.6773,176.6589
66.7433,182.384
66.80929,166.2754
66.87529,178.3668
66.94129,162.9827
67.00729,167.9732
67.07329,151.4938
67.13928,161.4009
67.20528,171.1075
67.27128,148.6216
67.33728,172.8615
67.40328,178.0449
67.46927,143.5348
67.53527,158.3879
67.60127,161.6022
67.66727,161.2834
67.73327,162.956
67.79926,152.6814
67.86526,148.3108
67.93126,174.2136
67.99726,171.6635
68.06326,167.1356
68.12925,174.8015
68.19525,188.7364
68.26125,166.4738
68.32725,156.8909
68.39325,162.7228
68.45924,177.1689
68.52524,182.1766
68.59124,163.4581
68.65724,169.5692
68.72324,163.4697
68.78923,171.9542
68.85523,189.9932
68.92123,153.0453
68.98723,161.1852
69.05323,158.5323
69.11922,172.8022
69.18522,167.0724
69.25122,151.1656
69.31722,166.5665
69.38322,137.9924
69.44921,188.7939
69.51521,179.7472
69.58121,178.5755
69.64721,182.3785
69.71321,159.7378
69.7792,172.8946
69.8452,166.9908
69.9112,187.8062
69.9772,221.0219
70.0432,208.052
70.10919,207.5402
70.17519,208.4974
70.24119,232.6344
70.30719,276.7005
70.37319,513.4918
70.43918,486.1452
70.50518,384.6578
70.57118,470.1704
70.63718,520.2739
70.70318,397.6701
70.76917,323.7343
70.83517,304.3292
70.90117,250.6708
70.96717,209.779
71.03317,171.7095
71.09916,169.5687
71.16516,176.7317
71.23116,171.5457
71.29716,168.1144
71.36316,160.3054
71.42915,158.0251
71.49515,173.2684
71.56115,154.5084
71.62715,154.7672
71.69315,166.3953
71.75914,145.8216
71.82514,171.9067
71.89114,175.98
71.95714,159.432
72.02314,162.6881
72.08913,159.5836
72.15513,169.3681
72.22113,173.9917
72.28713,152.4216
72.35313,182.4831
72.41912,163.2047
72.48512,157.7888
72.55112,150.7502
72.61712,162.9019
72.68312,164.752
72.74911,166.2289
72.81511,174.357
72.88111,174.5081
72.94711,172.8217
73.01311,149.8672
73.0791,171.0972
73.1451,172.1772
73.2111,184.7536
73.2771,161.205
73.3431,157.317
73.40909,189.2584
73.47509,159.0007
73.54109,158.3702
73.60709,165.4011
73.67309,173.4272
73.73908,177.2064
73.80508,163.8461
73.87108,146.3148
73.93708,156.2954
74.00308,156.5771
74.06907,206.3971
74.13507,188.7918
74.20107,196.7145
74.26707,241.3945
74.33307,283.0996
74.39906,503.9344
74.46506,731.8984
74.53106,530.7666
74.59706,501.1102
74.66306,570.91
74.72905,495.0678
74.79505,442.2186
74.86105,417.6314
74.92705,443.0584
74.99305,504.123
75.05904,734.6099
75.12504,1229.84
75.19104,1095.5
75.25704,750.4587
75.32304,719.1805
75.38903,666.8659
75.45503,483.3371
75.52103,266.8806
75.58703,218.1006
75.65303,190.4535
75.71902,182.1556
75.78502,164.5852
75.85102,164.2808
75.91702,171.0936
75.98302,158.9102
76.04901,152.7233
76.11501,181.5558
76.18101,179.9558
76.24701,167.2136
76.31301,160.2044
76.379,179.3223
76.445,163.1739
76.511,182.0015
76.577,175.4001
76.643,172.379
76.70899,155.2002
76.77499,168.2044
76.84099,170.591
76.90699,164.7401
76.97299,166.1703
77.03898,159.4478
77.10498,172.2483
77.17098,156.3369
77.23698,169.009
77.30298,175.5669
77.36897,157.6577
77.43497,187.9517
77.50097,162.2202
77.56697,161.8949
77.63297,178.3001
77.69896,181.8913
77.76496,150.3562
77.83096,174.4695
77.89696,161.1657
77.96296,165.3927
78.02895,170.4675
78.09495,156.7369
78.16095,163.8844
78.22695,164.9819
78.29295,164.4536
78.35894,162.8779
78.42494,155.9765
78.49094,184.2167
78.55694,161.1123
78.62294,180.2003
78.68893,189.7255
78.75493,250.8471
78.82093,407.1646
78.88693,365.1865
78.95293,316.8814
79.01892,331.9043
79.08492,355.9833
79.15092,324.5985
79.21692,289.1001
79.28292,279.4798
79.34891,355.6312
79.41491,512.6197
79.48091,740.9188
79.54691,488.9788
79.61291,315.3773
79.6789,413.8238
79.7449,460.6451
79.8109,237.237
79.8769,197.4497
79.9429,186.1175