File: data/xrd_icdd_PDF/00-055-0638 (PD3).csv
6,4523
6.08,4556
6.16,4298
6.24,4348
6.32,4241
6.4,4152
6.48,4209
6.56,4160
6.64,4064
6.72,3993
6.8,3977
6.88,3844
6.96,3906
7.04,3844
7.12,3775
7.2,3615
7.28,3578
7.36,3608
7.44,3645
7.52,3511
7.6,3466
7.68,3496
7.76,3299
7.84,3408
7.92,3321
8,3342
8.08,3313
8.16,3192
8.24,3164
8.32,3221
8.4,3018
8.48,2936
8.56,3032
8.64,2963
8.72,2896
8.8,3004
8.88,2882
8.96,2909
9.04,2769
9.12,2862
9.2,2783
9.28,2685
9.36,2678
9.44,2796
9.52,2652
9.6,2633
9.68,2588
9.76,2685
9.84,2672
9.92,2582
10,2576
10.08,2646
10.16,2463
10.24,2506
10.32,2538
10.4,2463
10.48,2395
10.56,2352
10.64,2346
10.72,2244
10.8,2238
10.88,2310
10.96,2197
11.04,2162
11.12,2256
11.2,2151
11.28,2186
11.36,2110
11.44,2133
11.52,2099
11.6,2070
11.68,2065
11.76,1975
11.84,1986
11.92,1914
12,1931
12.08,1881
12.16,1844
12.24,1903
12.32,1909
12.4,1914
12.48,1881
12.56,1785
12.64,1887
12.72,1871
12.8,1775
12.88,1822
12.96,1871
13.04,1733
13.12,1727
13.2,1722
13.28,1630
13.36,1707
13.44,1754
13.52,1635
13.6,1600
13.68,1600
13.76,1615
13.84,1560
13.92,1625
14,1555
14.08,1595
14.16,1570
14.24,1526
14.32,1516
14.4,1502
14.48,1492
14.56,1449
14.64,1487
14.72,1482
14.8,1506
14.88,1430
14.96,1487
15.04,1444
15.12,1435
15.2,1406
15.28,1411
15.36,1388
15.44,1346
15.52,1364
15.6,1392
15.68,1411
15.76,1541
15.84,1425
15.92,1323
16,1388
16.08,1351
16.16,1319
16.24,1287
16.32,1305
16.4,1319
16.48,1346
16.56,1406
16.64,1406
16.72,1430
16.8,1570
16.88,1416
16.96,1337
17.04,1182
17.12,1296
17.2,1238
17.28,1274
17.36,1203
17.44,1216
17.52,1256
17.6,1216
17.68,1216
17.76,1177
17.84,1152
17.92,1160
18,1097
18.08,1186
18.16,1173
18.24,1256
18.32,1156
18.4,1101
18.48,1122
18.56,1156
18.64,1126
18.72,1131
18.8,1169
18.88,1208
18.96,1156
19.04,1106
19.12,1081
19.2,1143
19.28,1122
19.36,1221
19.44,1269
19.52,1225
19.6,1216
19.68,1310
19.76,1487
19.84,1790
19.92,2633
20,4787
20.08,10113
20.16,29070
20.24,45850
20.32,13587
20.4,3101
20.48,2488
20.56,3164
20.64,5729
20.72,12769
20.8,29951
20.88,47170
20.96,26753
21.04,4718
21.12,1871
21.2,1521
21.28,1296
21.36,1203
21.44,1156
21.52,1143
21.6,1106
21.68,1052
21.76,988
21.84,926
21.92,1024
22,1036
22.08,1077
22.16,996
22.24,1060
22.32,1000
22.4,915
22.48,949
22.56,953
22.64,949
22.72,1081
22.8,1323
22.88,2145
22.96,3977
23.04,2816
23.12,1260
23.2,1036
23.28,896
23.36,896
23.44,926
23.52,949
23.6,961
23.68,900
23.76,848
23.84,900
23.92,791
24,870
24.08,816
24.16,823
24.24,823
24.32,911
24.4,845
24.48,834
24.56,809
24.64,856
24.72,834
24.8,802
24.88,919
24.96,992
25.04,1012
25.12,1060
25.2,1502
25.28,2646
25.36,2377
25.44,1156
25.52,923
25.6,848
25.68,885
25.76,930
25.84,908
25.92,996
26,1040
26.08,1454
26.16,2538
26.24,5157
26.32,5059
26.4,2334
26.48,1097
26.56,992
26.64,1004
26.72,953
26.8,893
26.88,926
26.96,988
27.04,1000
27.12,870
27.2,845
27.28,896
27.36,856
27.44,893
27.52,834
27.6,823
27.68,885
27.76,827
27.84,795
27.92,739
28,852
28.08,770
28.16,870
28.24,837
28.32,823
28.4,812
28.48,856
28.56,904
28.64,1085
28.72,1135
28.8,1036
28.88,953
28.96,988
29.04,930
29.12,1060
29.2,1139
29.28,1305
29.36,1482
29.44,1346
29.52,1369
29.6,1575
29.68,2407
29.76,4988
29.84,13311
29.92,39875
30,49701
30.08,20610
30.16,4539
30.24,2389
30.32,1822
30.4,1516
30.48,1430
30.56,1265
30.64,1229
30.72,1190
30.8,1169
30.88,1216
30.96,1319
31.04,1420
31.12,1392
31.2,1301
31.28,1301
31.36,1351
31.44,1328
31.52,1473
31.6,2082
31.68,4582
31.76,13733
31.84,36029
31.92,32829
32,13182
32.08,4184
32.16,2672
32.24,2133
32.32,1925
32.4,1681
32.48,1650
32.56,1565
32.64,1439
32.72,1364
32.8,1328
32.88,1444
32.96,1550
33.04,1555
33.12,1686
33.2,2059
33.28,3178
33.36,6450
33.44,16851
33.52,50766
33.6,62094
33.68,29670
33.76,6602
33.84,2950
33.92,2444
34,2377
34.08,2620
34.16,3875
34.24,8487
34.32,25281
34.4,61814
34.48,68415
34.56,40728
34.64,14686
34.72,4497
34.8,2685
34.88,2128
34.96,1702
35.04,1531
35.12,1328
35.2,1332
35.28,1182
35.36,1165
35.44,1064
35.52,1097
35.6,1044
35.68,1048
35.76,1118
35.84,1238
35.92,1892
36,4032
36.08,10738
36.16,16050
36.24,10100
36.32,3798
36.4,1671
36.48,1269
36.56,1131
36.64,1040
36.72,889
36.8,856
36.88,848
36.96,856
37.04,896
37.12,969
37.2,1044
37.28,1139
37.36,1008
37.44,834
37.52,812
37.6,791
37.68,852
37.76,949
37.84,977
37.92,938
38,863
38.08,819
38.16,867
38.24,1044
38.32,1748
38.4,3563
38.48,3488
38.56,2174
38.64,1131
38.72,923
38.8,980
38.88,919
38.96,904
39.04,816
39.12,827
39.2,798
39.28,827
39.36,1169
39.44,2099
39.52,3805
39.6,3481
39.68,2025
39.76,1004
39.84,770
39.92,689
40,746
40.08,699
40.16,692
40.24,739
40.32,653
40.4,638
40.48,650
40.56,679
40.64,663
40.72,706
40.8,719
40.88,756
40.96,1052
41.04,1817
41.12,3721
41.2,2991
41.28,2003
41.36,992
41.44,911
41.52,874
41.6,1016
41.68,1411
41.76,1931
41.84,1865
41.92,2019
42,3790
42.08,3883
42.16,2665
42.24,1570
42.32,1388
42.4,2438
42.48,3108
42.56,3593
42.64,2756
42.72,1764
42.8,953
42.88,760
42.96,726
43.04,712
43.12,692
43.2,696
43.28,641
43.36,641
43.44,666
43.52,722
43.6,736
43.68,722
43.76,743
43.84,683
43.92,696
44,699
44.08,699
44.16,736
44.24,767
44.32,706
44.4,791
44.48,946
44.56,1585
44.64,2250
44.72,2053
44.8,1378
44.88,1110
44.96,1101
45.04,1383
45.12,2563
45.2,3503
45.28,3844
45.36,3466
45.44,4752
45.52,9240
45.6,11529
45.68,13326
45.76,8966
45.84,5077
45.92,2014
46,1126
46.08,938
46.16,848
46.24,856
46.32,795
46.4,856
46.48,827
46.56,863
46.64,977
46.72,1135
46.8,1876
46.88,4761
46.96,9276
47.04,7865
47.12,5229
47.2,2286
47.28,1199
47.36,900
47.44,819
47.52,798
47.6,774
47.68,716
47.76,722
47.84,709
47.92,699
48,732
48.08,760
48.16,802
48.24,729
48.32,743
48.4,732
48.48,834
48.56,1203
48.64,1595
48.72,1785
48.8,2659
48.88,2849
48.96,2174
49.04,1439
49.12,915
49.2,722
49.28,702
49.36,686
49.44,722
49.52,666
49.6,657
49.68,696
49.76,719
49.84,736
49.92,726
50,676
50.08,641
50.16,692
50.24,834
50.32,1081
50.4,2019
50.48,2389
50.56,2008
50.64,1892
50.72,2036
50.8,1671
50.88,1397
50.96,938
51.04,802
51.12,774
51.2,812
51.28,763
51.36,885
51.44,919
51.52,1000
51.6,1131
51.68,1182
51.76,1754
51.84,3032
51.92,7046
52,12196
52.08,10328
52.16,7289
52.24,3578
52.32,1655
52.4,1156
52.48,1000
52.56,908
52.64,870
52.72,878
52.8,969
52.88,1190
52.96,2110
53.04,3342
53.12,3164
53.2,2582
53.28,1759
53.36,1865
53.44,2862
53.52,3039
53.6,3228
53.68,3782
53.76,3415
53.84,2763
53.92,2244
54,2364
54.08,3178
54.16,3759
54.24,2923
54.32,2227
54.4,1506
54.48,1346
54.56,1769
54.64,2698
54.72,3256
54.8,2525
54.88,1997
54.96,1260
55.04,980
55.12,992
55.2,1089
55.28,1152
55.36,1541
55.44,2633
55.52,6993
55.6,16803
55.68,15283
55.76,12252
55.84,7204
55.92,3228
56,1865
56.08,1402
56.16,1135
56.24,1036
56.32,953
56.4,938
56.48,885
56.56,852
56.64,834
56.72,819
56.8,812
56.88,798
56.96,784
57.04,774
57.12,863
57.2,863
57.28,946
57.36,1081
57.44,1645
57.52,2304
57.6,2197
57.68,2025
57.76,1454
57.84,1056
57.92,852
58,874
58.08,812
58.16,837
58.24,885
58.32,1114
58.4,2014
58.48,2475
58.56,2209
58.64,1903
58.72,1305
58.8,996
58.88,827
58.96,867
59.04,802
59.12,809
59.2,770
59.28,763
59.36,827
59.44,852
59.52,784
59.6,798
59.68,798
59.76,819
59.84,812
59.92,878
60,938
60.08,1081
60.16,1323
60.24,1785
60.32,2930
60.4,5729
60.48,10790
60.56,13182
60.64,14991
60.72,15892
60.8,9950
60.88,7077
60.96,3706
61.04,1876
61.12,1369
61.2,1186
61.28,1093
61.36,1160
61.44,1247
61.52,1640
61.6,2730
61.68,4848
61.76,5347
61.84,4315
61.92,3945
62,2652
62.08,2116
62.16,2475
62.24,4176
62.32,5166
62.4,3698
62.48,3278
62.56,1953
62.64,1260
62.72,1081
62.8,1110
62.88,1186
62.96,1283
63.04,1717
63.12,3136
63.2,5202
63.28,5467
63.36,5987
63.44,6094
63.52,4865
63.6,3653
63.68,2776
63.76,1764
63.84,1319
63.92,1036
64,881
64.08,878
64.16,852
64.24,781
64.32,802
64.4,848
64.48,798
64.56,911
64.64,992
64.72,1287
64.8,2076
64.88,4590
64.96,5719
65.04,5824
65.12,4778
65.2,3503
65.28,2105
65.36,1420
65.44,1044
65.52,977
65.6,1169
65.68,1369
65.76,1681
65.84,1595
65.92,1595
66,1645
66.08,1640
66.16,2221
66.24,2783
66.32,3101
66.4,4298
66.48,6602
66.56,8179
66.64,8545
66.72,6581
66.8,4909
66.88,3143
66.96,1748
67.04,1238
67.12,1008
67.2,859
67.28,816
67.36,781
67.44,712
67.52,699
67.6,739
67.68,767
67.76,774
67.84,915
67.92,1048
68,1135
68.08,1477
68.16,1511
68.24,1296
68.32,1234
68.4,973
68.48,848
68.56,816
68.64,896
68.72,1190
68.8,1526
68.88,1671
68.96,1986
69.04,2383
69.12,3386
69.2,4249
69.28,3386
69.36,2849
69.44,2215
69.52,1439
69.6,1012
69.68,819
69.76,699
69.84,660
69.92,676
70,597
70.08,609
70.16,628
70.24,638
70.32,760
70.4,923
70.48,1482
70.56,2128
70.64,2053
70.72,1645
70.8,1482
70.88,1101
70.96,774
71.04,644
71.12,616
71.2,619
71.28,625
71.36,591
71.44,567
71.52,561
71.6,573
71.68,558
71.76,555
71.84,579
71.92,558
72,538
72.08,585
72.16,597
72.24,573
72.32,716
72.4,878
72.48,1620
72.56,2215
72.64,2145
72.72,2444
72.8,2544
72.88,1844
72.96,1402
73.04,1139
73.12,784
73.2,609
73.28,558
73.36,613
73.44,634
73.52,564
73.6,541
73.68,594
73.76,638
73.84,647
73.92,749
74,781
74.08,756
74.16,938
74.24,1081
74.32,980
74.4,946
74.48,834
74.56,763
74.64,760
74.72,923
74.8,1186
74.88,1502
74.96,1585
75.04,1468
75.12,1287
75.2,1077
75.28,848
75.36,696
75.44,594
75.52,570
75.6,538
75.68,552
75.76,515
75.84,529
75.92,503
76,487
76.08,481
76.16,558
76.24,606
76.32,609
76.4,696
76.48,716
76.56,644
76.64,647
76.72,683
76.8,628
76.88,555
76.96,506
77.04,523
77.12,515
77.2,460
77.28,462
77.36,457
77.44,428
77.52,441
77.6,509
77.68,473
77.76,520
77.84,546
77.92,676
78,859
78.08,1139
78.16,1156
78.24,1173
78.32,1182
78.4,1328
78.48,1319
78.56,1351
78.64,1355
78.72,1238
78.8,1173
78.88,1269
78.96,1305
79.04,1416
79.12,1360
79.2,1388
79.28,1216
79.36,1314
79.44,1580
79.52,1953
79.6,1980
79.68,1590
79.76,1416
79.84,1212
79.92,911
80,679
80.08,570
80.16,555
80.24,532
80.32,552
80.4,509
80.48,484
80.56,520
80.64,506
80.72,585
80.8,657
80.88,743
80.96,893
81.04,904
81.12,760
81.2,696
81.28,625
81.36,552
81.44,501
81.52,468
81.6,462
81.68,449
81.76,492
81.84,476
81.92,476
82,446
82.08,526
82.16,503
82.24,538
82.32,579
82.4,535
82.48,509
82.56,512
82.64,492
82.72,484
82.8,518
82.88,515
82.96,460
83.04,465
83.12,457
83.2,460
83.28,492
83.36,520
83.44,465
83.52,552
83.6,676
83.68,686
83.76,679
83.84,706
83.92,666
84,622
84.08,625
84.16,657
84.24,712
84.32,819
84.4,1048
84.48,1044
84.56,1173
84.64,1691
84.72,2036
84.8,1865
84.88,1854
84.96,2209
85.04,2203
85.12,2003
85.2,1676
85.28,1595
85.36,1580
85.44,1402
85.52,1305
85.6,1351
85.68,1402
85.76,1269
85.84,1190
85.92,1118
86,1101
86.08,919
86.16,977
86.24,934
86.32,885
86.4,841
86.48,1028
86.56,1292
86.64,1828
86.72,2582
86.8,2862
86.88,2950
86.96,2750
87.04,2304
87.12,1909
87.2,1521
87.28,1110
87.36,834
87.44,709
87.52,613
87.6,616
87.68,616
87.76,573
87.84,492
87.92,613
88,606
88.08,600
88.16,585
88.24,653
88.32,716
88.4,823
88.48,919
88.56,1077
88.64,1516
88.72,2128
88.8,2419
88.88,2197
88.96,1838
89.04,1844
89.12,1650
89.2,1463
89.28,1243
89.36,1016
89.44,896
89.52,812
89.6,809
89.68,650
89.76,603
89.84,576
89.92,570
90,576
90.08,573
90.16,579
90.24,603
90.32,670
90.4,732
90.48,791
90.56,781
90.64,679
90.72,746
90.8,706
90.88,650
90.96,638
91.04,609
91.12,619
91.2,657
91.28,716
91.36,767
91.44,1028
91.52,1610
91.6,2665
91.68,3400
91.76,3335
91.84,2809
91.92,2659
92,2569
92.08,2340
92.16,2203
92.24,2070
92.32,1707
92.4,1497
92.48,1435
92.56,1364
92.64,1374
92.72,1416
92.8,1369
92.88,1251
92.96,1243
93.04,1305
93.12,1531
93.2,1580
93.28,1565
93.36,1269
93.44,1135
93.52,1101
93.6,1064
93.68,984
93.76,926
93.84,961
93.92,908
94,893
94.08,957
94.16,1068
94.24,1068
94.32,1089
94.4,1077
94.48,1135
94.56,1346
94.64,1449
94.72,1310
94.8,1186
94.88,1101
94.96,1064
95.04,919
95.12,795
95.2,653
95.28,641
95.36,670
95.44,746
95.52,795
95.6,911
95.68,1110
95.76,1492
95.84,1686
95.92,1702
96,1785
96.08,1828
96.16,1640
96.24,1458
96.32,1287
96.4,1139
96.48,911
96.56,791
96.64,692
96.72,692
96.8,631
96.88,638
96.96,609
97.04,619
97.12,653
97.2,613
97.28,613
97.36,609
97.44,609
97.52,585
97.6,541
97.68,555
97.76,585
97.84,509
97.92,498
98,538
98.08,526
98.16,549
98.24,490
98.32,506
98.4,535
98.48,509
98.56,501
98.64,585
98.72,538
98.8,582
98.88,606
98.96,597
99.04,588
99.12,603
99.2,634
99.28,603
99.36,564
99.44,576
99.52,588
99.6,609
99.68,660
99.76,712
99.84,784
99.92,980
99.98,1152