File: data/xrd_icdd_PDF/00-062-0348 (PD3).csv
10,120
10.08,130
10.16,142
10.24,137
10.32,124
10.4,128
10.48,104
10.56,114
10.64,100
10.72,124
10.8,122
10.88,105
10.96,112
11.04,104
11.12,122
11.2,100
11.28,106
11.36,99
11.44,106
11.52,105
11.6,112
11.68,102
11.76,114
11.84,120
11.92,112
12,109
12.08,107
12.16,104
12.24,116
12.32,112
12.4,100
12.48,92
12.56,96
12.64,108
12.72,101
12.8,117
12.88,101
12.96,94
13.04,102
13.12,96
13.2,103
13.28,86
13.36,100
13.44,102
13.52,96
13.6,98
13.68,98
13.76,98
13.84,90
13.92,96
14,90
14.08,86
14.16,92
14.24,104
14.32,102
14.4,91
14.48,83
14.56,91
14.64,92
14.72,93
14.8,96
14.88,91
14.96,102
15.04,90
15.12,90
15.2,100
15.28,91
15.36,93
15.44,94
15.52,98
15.6,86
15.68,80
15.76,88
15.84,78
15.92,87
16,84
16.08,81
16.16,84
16.24,86
16.32,96
16.4,81
16.48,76
16.56,84
16.64,88
16.72,88
16.8,95
16.88,84
16.96,80
17.04,92
17.12,94
17.2,79
17.28,86
17.36,94
17.44,100
17.52,80
17.6,76
17.68,74
17.76,80
17.84,78
17.92,90
18,78
18.08,87
18.16,79
18.24,84
18.32,92
18.4,92
18.48,98
18.56,80
18.64,80
18.72,96
18.8,82
18.88,80
18.96,81
19.04,82
19.12,85
19.2,82
19.28,84
19.36,72
19.44,77
19.52,89
19.6,84
19.68,84
19.76,96
19.84,70
19.92,82
20,84
20.08,72
20.16,80
20.24,77
20.32,90
20.4,94
20.48,120
20.56,136
20.64,82
20.72,72
20.8,74
20.88,70
20.96,76
21.04,68
21.12,81
21.2,76
21.28,71
21.36,72
21.44,70
21.52,58
21.6,72
21.68,68
21.76,77
21.84,62
21.92,72
22,70
22.08,68
22.16,74
22.24,70
22.32,72
22.4,61
22.48,64
22.56,69
22.64,60
22.72,65
22.8,58
22.88,66
22.96,68
23.04,60
23.12,56
23.2,66
23.28,46
23.36,66
23.44,56
23.52,66
23.6,50
23.68,58
23.76,47
23.84,50
23.92,55
24,60
24.08,58
24.16,67
24.24,76
24.32,118
24.4,320
24.48,674
24.56,357
24.64,90
24.72,62
24.8,60
24.88,60
24.96,58
25.04,48
25.12,35
25.2,40
25.28,47
25.36,46
25.44,38
25.52,42
25.6,42
25.68,35
25.76,46
25.84,34
25.92,50
26,32
26.08,30
26.16,34
26.24,42
26.32,38
26.4,40
26.48,35
26.56,40
26.64,34
26.72,39
26.8,35
26.88,38
26.96,44
27.04,44
27.12,40
27.2,48
27.28,34
27.36,40
27.44,28
27.52,33
27.6,32
27.68,31
27.76,39
27.84,32
27.92,33
28,38
28.08,30
28.16,34
28.24,42
28.32,38
28.4,35
28.48,32
28.56,29
28.64,24
28.72,32
28.8,32
28.88,31
28.96,40
29.04,32
29.12,23
29.2,37
29.28,38
29.36,33
29.44,40
29.52,36
29.6,62
29.68,52
29.76,50
29.84,74
29.92,72
30,75
30.08,132
30.16,260
30.24,816
30.32,3226
30.4,7706
30.48,4964
30.56,1112
30.64,223
30.72,144
30.8,128
30.88,211
30.96,390
31.04,422
31.12,226
31.2,88
31.28,64
31.36,84
31.44,243
31.52,857
31.6,1564
31.68,808
31.76,169
31.84,54
31.92,42
32,38
32.08,36
32.16,38
32.24,36
32.32,25
32.4,22
32.48,20
32.56,18
32.64,28
32.72,27
32.8,28
32.88,24
32.96,26
33.04,40
33.12,128
33.2,487
33.28,1148
33.36,672
33.44,187
33.52,47
33.6,38
33.68,30
33.76,26
33.84,24
33.92,26
34,22
34.08,22
34.16,20
34.24,16
34.32,30
34.4,30
34.48,32
34.56,34
34.64,38
34.72,23
34.8,20
34.88,14
34.96,20
35.04,14
35.12,12
35.2,16
35.28,14
35.36,18
35.44,18
35.52,17
35.6,15
35.68,14
35.76,16
35.84,14
35.92,14
36,14
36.08,10
36.16,12
36.24,18
36.32,15
36.4,15
36.48,12
36.56,15
36.64,18
36.72,16
36.8,16
36.88,13
36.96,20
37.04,21
37.12,22
37.2,17
37.28,18
37.36,17
37.44,26
37.52,36
37.6,25
37.68,41
37.76,85
37.84,274
37.92,1224
38,1542
38.08,878
38.16,184
38.24,60
38.32,71
38.4,176
38.48,237
38.56,156
38.64,66
38.72,32
38.8,22
38.88,20
38.96,16
39.04,18
39.12,17
39.2,18
39.28,20
39.36,18
39.44,18
39.52,10
39.6,18
39.68,13
39.76,14
39.84,15
39.92,12
40,12
40.08,12
40.16,12
40.24,17
40.32,14
40.4,11
40.48,14
40.56,12
40.64,14
40.72,16
40.8,14
40.88,17
40.96,16
41.04,14
41.12,17
41.2,14
41.28,18
41.36,18
41.44,19
41.52,24
41.6,54
41.68,148
41.76,264
41.84,162
41.92,91
42,26
42.08,26
42.16,18
42.24,16
42.32,15
42.4,23
42.48,13
42.56,12
42.64,14
42.72,22
42.8,12
42.88,17
42.96,14
43.04,14
43.12,19
43.2,12
43.28,16
43.36,18
43.44,14
43.52,18
43.6,19
43.68,25
43.76,17
43.84,13
43.92,18
44,16
44.08,76
44.16,16
44.24,16
44.32,26
44.4,16
44.48,24
44.56,28
44.64,25
44.72,28
44.8,42
44.88,60
44.96,50
45.04,90
45.12,193
45.2,910
45.28,2224
45.36,1498
45.44,813
45.52,176
45.6,64
45.68,38
45.76,35
45.84,31
45.92,26
46,22
46.08,20
46.16,20
46.24,10
46.32,19
46.4,16
46.48,18
46.56,23
46.64,18
46.72,24
46.8,22
46.88,18
46.96,15
47.04,15
47.12,18
47.2,20
47.28,19
47.36,26
47.44,22
47.52,37
47.6,82
47.68,192
47.76,482
47.84,443
47.92,290
48,102
48.08,41
48.16,27
48.24,18
48.32,25
48.4,28
48.48,18
48.56,16
48.64,17
48.72,18
48.8,18
48.88,14
48.96,12
49.04,16
49.12,19
49.2,17
49.28,14
49.36,16
49.44,17
49.52,14
49.6,16
49.68,12
49.76,16
49.84,18
49.92,24
50,15
50.08,18
50.16,25
50.24,30
50.32,21
50.4,24
50.48,25
50.56,20
50.64,22
50.72,24
50.8,21
50.88,19
50.96,16
51.04,18
51.12,14
51.2,16
51.28,14
51.36,18
51.44,16
51.52,16
51.6,20
51.68,19
51.76,19
51.84,20
51.92,26
52,36
52.08,100
52.16,172
52.24,122
52.32,94
52.4,41
52.48,30
52.56,36
52.64,36
52.72,38
52.8,66
52.88,108
52.96,124
53.04,134
53.12,238
53.2,848
53.28,1888
53.36,1380
53.44,1012
53.52,378
53.6,88
53.68,65
53.76,42
53.84,33
53.92,40
54,36
54.08,33
54.16,29
54.24,37
54.32,29
54.4,28
54.48,29
54.56,31
54.64,24
54.72,28
54.8,22
54.88,24
54.96,30
55.04,38
55.12,44
55.2,56
55.28,82
55.36,198
55.44,878
55.52,2356
55.6,1438
55.68,1248
55.76,534
55.84,283
55.92,282
56,188
56.08,144
56.16,50
56.24,33
56.32,34
56.4,22
56.48,27
56.56,24
56.64,16
56.72,20
56.8,20
56.88,20
56.96,17
57.04,20
57.12,17
57.2,13
57.28,14
57.36,16
57.44,20
57.52,15
57.6,14
57.68,16
57.76,16
57.84,20
57.92,42
58,64
58.08,105
58.16,75
58.24,60
58.32,28
58.4,16
58.48,16
58.56,16
58.64,16
58.72,13
58.8,21
58.88,20
58.96,16
59.04,14
59.12,18
59.2,13
59.28,16
59.36,18
59.44,10
59.52,7
59.6,10
59.68,14
59.76,16
59.84,18
59.92,10
60,18
60.08,12
60.16,18
60.24,10
60.32,14
60.4,13
60.48,14
60.56,13
60.64,10
60.72,18
60.8,47
60.88,120
60.96,77
61.04,58
61.12,38
61.2,20
61.28,9
61.36,14
61.44,14
61.52,8
61.6,14
61.68,14
61.76,14
61.84,14
61.92,13
62,12
62.08,10
62.16,11
62.24,16
62.32,12
62.4,14
62.48,13
62.56,10
62.64,14
62.72,10
62.8,15
62.88,14
62.96,22
63.04,18
63.12,34
63.2,121
63.28,232
63.36,140
63.44,136
63.52,96
63.6,26
63.68,28
63.76,16
63.84,16
63.92,14
64,16
64.08,14
64.16,18
64.24,15
64.32,27
64.4,29
64.48,50
64.56,106
64.64,155
64.72,152
64.8,93
64.88,87
64.96,40
65.04,16
65.12,14
65.2,14
65.28,14
65.36,19
65.44,16
65.52,18
65.6,24
65.68,28
65.76,42
65.84,95
65.92,405
66,544
66.08,286
66.16,316
66.24,153
66.32,45
66.4,22
66.48,22
66.56,24
66.64,13
66.72,20
66.8,17
66.88,14
66.96,16
67.04,20
67.12,12
67.2,14
67.28,12
67.36,14
67.44,18
67.52,14
67.6,19
67.68,22
67.76,35
67.84,96
67.92,282
68,229
68.08,148
68.16,174
68.24,62
68.32,22
68.4,16
68.48,17
68.56,14
68.64,14
68.72,14
68.8,16
68.88,20
68.96,25
69.04,60
69.12,98
69.2,196
69.28,261
69.36,150
69.44,124
69.52,103
69.6,42
69.68,26
69.76,21
69.84,16
69.92,18
70,14
70.08,14
70.16,12
70.24,11
70.32,19
70.4,13
70.48,12
70.56,14
70.64,10
70.72,10
70.8,8
70.88,12
70.96,12
71.04,12
71.12,8
71.2,12
71.28,12
71.36,12
71.44,31
71.52,46
71.6,26
71.68,23
71.76,28
71.84,18
71.92,20
72,33
72.08,67
72.16,96
72.24,63
72.32,58
72.4,46
72.48,28
72.56,21
72.64,12
72.72,18
72.8,10
72.88,14
72.96,15
73.04,18
73.12,20
73.2,14
73.28,18
73.36,16
73.44,18
73.52,20
73.6,38
73.68,62
73.76,98
73.84,58
73.92,44
74,43
74.08,44
74.16,32
74.24,101
74.32,354
74.4,356
74.48,202
74.56,248
74.64,238
74.72,162
74.8,78
74.88,122
74.96,237
75.04,206
75.12,116
75.2,134
75.28,80
75.36,34
75.44,40
75.52,28
75.6,24
75.68,16
75.76,26
75.84,72
75.92,160
76,116
76.08,78
76.16,84
76.24,62
76.32,33
76.4,27
76.48,60
76.56,90
76.64,56
76.72,35
76.8,49
76.88,29
76.96,20
77.04,13
77.12,20
77.2,18
77.28,18
77.36,12
77.44,16
77.52,14
77.6,12
77.68,12
77.76,10
77.84,16
77.92,10
78,20
78.08,13
78.16,14
78.24,18
78.32,20
78.4,16
78.48,25
78.56,28
78.64,96
78.72,246
78.8,170
78.88,108
78.96,132
79.04,85
79.12,59
79.2,28
79.28,38
79.36,23
79.44,18
79.52,16
79.6,14
79.68,12
79.76,14
79.84,11
79.92,15
80,10
80.08,12
80.16,14
80.24,14
80.32,18
80.4,12
80.48,14
80.56,16
80.64,16
80.72,17
80.8,17
80.88,16
80.96,22
81.04,30
81.12,76
81.2,118
81.28,68
81.36,53
81.44,89
81.52,52
81.6,32
81.68,18
81.76,24
81.84,27
81.92,19
82,18
82.08,20
82.16,38
82.24,78
82.32,144
82.4,264
82.48,244
82.56,126
82.64,136
82.72,128
82.8,64
82.88,24
82.96,19
83.04,18
83.12,16
83.2,21
83.28,18
83.36,22
83.44,24
83.52,22
83.6,22
83.68,14
83.76,12
83.84,14
83.92,13
84,12
84.08,8
84.16,12
84.24,12
84.32,22
84.4,16
84.48,15
84.56,14
84.64,11
84.72,14
84.8,12
84.88,12
84.96,18
85.04,10
85.12,18
85.2,22
85.28,20
85.36,32
85.44,78
85.52,82
85.6,70
85.68,73
85.76,112
85.84,96
85.92,74
86,61
86.08,53
86.16,32
86.24,26
86.32,33
86.4,23
86.48,52
86.56,110
86.64,224
86.72,246
86.8,137
86.88,94
86.96,122
87.04,99
87.12,41
87.2,24
87.28,20
87.36,20
87.44,18
87.52,19
87.6,15
87.68,19
87.76,20
87.84,18
87.92,19
88,15
88.08,19
88.16,16
88.24,16
88.32,14
88.4,17
88.48,20
88.56,21
88.64,16
88.72,30
88.8,58
88.88,44
88.96,28
89.04,35
89.12,36
89.2,36
89.28,47
89.36,63
89.44,74
89.52,98
89.6,208
89.68,536
89.76,566
89.84,266
89.92,236
90,345
90.08,220
90.16,75
90.24,44
90.32,29
90.4,34
90.48,18
90.56,21
90.64,25
90.72,33
90.8,30
90.88,46
90.96,57
91.04,46
91.12,48
91.2,55
91.28,53
91.36,68
91.44,187
91.52,420
91.6,338
91.68,195
91.76,178
91.84,236
91.92,150
92,71
92.08,37
92.16,22
92.24,18
92.32,24
92.4,34
92.48,17
92.56,19
92.64,18
92.72,16
92.8,22
92.88,16
92.96,16
93.04,13
93.12,14
93.2,16
93.28,12
93.36,18
93.44,15
93.52,21
93.6,27
93.68,32
93.76,24
93.84,17
93.92,22
94,26
94.08,14
94.16,16
94.24,20
94.32,10
94.4,17
94.48,17
94.56,19
94.64,24
94.72,20
94.8,22
94.88,24
94.96,48
95.04,60
95.12,98
95.2,123
95.28,111
95.36,66
95.44,58
95.52,66
95.6,50
95.68,29
95.76,14
95.84,22
95.92,17
96,24
96.08,40
96.16,32
96.24,22
96.32,21
96.4,27
96.48,22
96.56,16
96.64,14
96.72,14
96.8,11
96.88,14
96.96,18
97.04,14
97.12,14
97.2,12
97.28,14
97.36,11
97.44,12
97.52,10
97.6,13
97.68,7
97.76,10
97.84,12
97.92,16
98,12
98.08,12
98.16,16
98.24,10
98.32,20
98.4,14
98.48,18
98.56,34
98.64,24
98.72,16
98.8,24
98.88,20
98.96,23
99.04,20
99.12,22
99.2,28
99.28,46
99.36,97
99.44,178
99.52,166
99.6,102
99.68,74
99.76,90
99.84,86
99.92,53
100,34
100.08,24
100.16,22
100.24,17
100.32,20
100.4,22
100.48,26
100.56,53
100.64,126
100.72,136
100.8,100
100.88,64
100.96,66
101.04,86
101.12,68
101.2,40
101.28,22
101.36,22
101.44,21
101.52,14
101.6,19
101.68,12
101.76,16
101.84,17
101.92,16
102,12
102.08,19
102.16,18
102.24,18
102.32,24
102.4,28
102.48,70
102.56,88
102.64,65
102.72,45
102.8,42
102.88,52
102.96,57
103.04,32
103.12,20
103.2,20
103.28,17
103.36,21
103.44,18
103.52,25
103.6,28
103.68,40
103.76,81
103.84,91
103.92,68
104,36
104.08,42
104.16,54
104.24,44
104.32,28
104.4,22
104.48,21
104.56,16
104.64,13
104.72,15
104.8,17
104.88,10
104.96,14
105.04,16
105.12,14
105.2,18
105.28,20
105.36,12
105.44,24
105.52,12
105.6,13
105.68,16
105.76,18
105.84,18
105.92,32
106,39
106.08,34
106.16,25
106.24,16
106.32,28
106.4,27
106.48,26
106.56,18
106.64,18
106.72,12
106.8,15
106.88,17
106.96,18
107.04,12
107.12,16
107.2,14
107.28,22
107.36,14
107.44,18
107.52,14
107.6,24
107.68,24
107.76,20
107.84,28
107.92,32
108,52
108.08,70
108.16,118
108.24,148
108.32,114
108.4,82
108.48,70
108.56,89
108.64,112
108.72,138
108.8,255
108.88,298
108.96,220
109.04,152
109.12,124
109.2,171
109.28,182
109.36,136
109.44,104
109.52,90
109.6,74
109.68,54
109.76,44
109.84,44
109.92,48
110,28
110.08,28
110.16,20
110.24,22
110.32,26
110.4,36
110.48,50
110.56,38
110.64,30
110.72,42
110.8,42
110.88,45
110.96,52
111.04,60
111.12,60
111.2,72
111.28,51
111.36,37
111.44,42
111.52,44
111.6,48
111.68,32
111.76,35
111.84,23
111.92,30
112,26
112.08,24
112.16,26
112.24,30
112.32,22
112.4,36
112.48,55
112.56,68
112.64,100
112.72,155
112.8,168
112.88,144
112.96,92
113.04,75
113.12,88
113.2,100
113.28,86
113.36,88
113.44,58
113.52,58
113.6,37
113.68,44
113.76,42
113.84,54
113.92,46
114,25
114.08,26
114.16,28
114.24,28
114.32,24
114.4,20
114.48,17
114.56,17
114.64,20
114.72,17
114.8,12
114.88,16
114.96,12
115.04,15
115.12,14
115.2,18
115.28,17
115.36,16
115.44,19
115.52,20
115.6,16
115.68,24
115.76,32
115.84,31
115.92,36
116,44
116.08,62
116.16,74
116.24,48
116.32,30
116.4,32
116.48,46
116.56,48
116.64,34
116.72,26
116.8,22
116.88,23
116.96,24
117.04,20
117.12,15
117.2,16
117.28,16
117.36,14
117.44,56
117.52,18
117.6,19
117.68,18
117.76,18
117.84,13
117.92,22
118,19
118.08,16
118.16,22
118.24,19
118.32,20
118.4,26
118.48,26
118.56,46
118.64,68
118.72,132
118.8,217
118.88,182
118.96,146
119.04,96
119.12,78
119.2,84
119.28,106
119.36,116
119.44,83
119.52,52
119.6,42
119.68,25
119.76,22
119.84,28
119.92,23
120,20
120.02,20