File: data/xrd_icdd_PDF/00-066-0496 (PD3).csv
5,97
5.08,79
5.16,85
5.24,60
5.32,60
5.4,93
5.48,97
5.56,69
5.64,75
5.72,78
5.8,79
5.88,67
5.96,82
6.04,53
6.12,63
6.2,62
6.28,78
6.36,63
6.44,81
6.52,64
6.6,64
6.68,87
6.76,63
6.84,64
6.92,65
7,82
7.08,64
7.16,66
7.24,79
7.32,57
7.4,52
7.48,67
7.56,65
7.64,92
7.72,96
7.8,98
7.88,61
7.96,77
8.04,62
8.12,80
8.2,63
8.28,63
8.36,85
8.44,61
8.52,62
8.6,63
8.68,80
8.76,63
8.84,65
8.92,78
9,56
9.08,51
9.16,66
9.24,64
9.32,90
9.4,94
9.48,96
9.56,59
9.64,75
9.72,60
9.8,78
9.88,61
9.96,61
10.04,84
10.12,60
10.2,60
10.28,61
10.36,78
10.44,89
10.52,87
10.6,77
10.68,68
10.76,75
10.84,69
10.92,67
11,54
11.08,62
11.16,45
11.24,56
11.32,59
11.4,62
11.48,48
11.56,77
11.64,55
11.72,55
11.8,91
11.88,68
11.96,82
12.04,67
12.12,84
12.2,86
12.28,78
12.36,71
12.44,58
12.52,56
12.6,65
12.68,52
12.76,60
12.84,43
12.92,77
13,67
13.08,74
13.16,70
13.24,59
13.32,68
13.4,56
13.48,77
13.56,83
13.64,70
13.72,82
13.8,63
13.88,50
13.96,58
14.04,41
14.12,52
14.2,54
14.28,57
14.36,43
14.44,72
14.52,51
14.6,51
14.68,87
14.76,64
14.84,77
14.92,62
15,79
15.08,81
15.16,73
15.24,67
15.32,54
15.4,51
15.48,60
15.56,47
15.64,55
15.72,43
15.8,75
15.88,83
15.96,58
16.04,52
16.12,64
16.2,65
16.28,75
16.36,89
16.44,69
16.52,63
16.6,45
16.68,76
16.76,79
16.84,70
16.92,56
17,63
17.08,75
17.16,57
17.24,43
17.32,38
17.4,69
17.48,80
17.56,47
17.64,44
17.72,52
17.8,39
17.88,76
17.96,74
18.04,58
18.12,76
18.2,76
18.28,79
18.36,81
18.44,63
18.52,83
18.6,59
18.68,52
18.76,68
18.84,59
18.92,46
19,41
19.08,73
19.16,84
19.24,52
19.32,49
19.4,58
19.48,46
19.56,86
19.64,85
19.72,72
19.8,92
19.88,94
19.96,102
20.04,112
20.12,97
20.2,120
20.28,175
20.36,242
20.44,395
20.52,624
20.6,1026
20.68,891
20.76,375
20.84,247
20.92,174
21,137
21.08,131
21.16,120
21.24,121
21.32,116
21.4,141
21.48,164
21.56,263
21.64,323
21.72,326
21.8,415
21.88,670
21.96,990
22.04,1841
22.12,3104
22.2,1656
22.28,736
22.36,415
22.44,290
22.52,201
22.6,144
22.68,112
22.76,125
22.84,123
22.92,81
23,70
23.08,73
23.16,55
23.24,90
23.32,85
23.4,66
23.48,82
23.56,78
23.64,80
23.72,81
23.8,61
23.88,79
23.96,54
24.04,47
24.12,62
24.2,52
24.28,37
24.36,32
24.44,62
24.52,73
24.6,39
24.68,35
24.76,43
24.84,30
24.92,67
25,65
25.08,49
25.16,66
25.24,64
25.32,67
25.4,69
25.48,50
25.56,69
25.64,45
25.72,38
25.8,54
25.88,44
25.96,30
26.04,23
26.12,54
26.2,65
26.28,32
26.36,29
26.44,40
26.52,27
26.6,65
26.68,63
26.76,59
26.84,42
26.92,57
27,28
27.08,41
27.16,41
27.24,57
27.32,42
27.4,61
27.48,44
27.56,45
27.64,68
27.72,45
27.8,46
27.88,48
27.96,66
28.04,50
28.12,53
28.2,67
28.28,46
28.36,42
28.44,59
28.52,58
28.6,87
28.68,93
28.76,98
28.84,64
28.92,83
29,72
29.08,94
29.16,82
29.24,105
29.32,94
29.4,135
29.48,128
29.56,155
29.64,166
29.72,205
29.8,209
29.88,280
29.96,365
30.04,471
30.12,643
30.2,1136
30.28,2303
30.36,4765
30.44,6168
30.52,3329
30.6,1225
30.68,972
30.76,906
30.84,1005
30.92,1595
31,3215
31.08,5607
31.16,5386
31.24,2345
31.32,914
31.4,583
31.48,483
31.56,350
31.64,266
31.72,223
31.8,183
31.88,156
31.96,125
32.04,118
32.12,90
32.2,91
32.28,87
32.36,84
32.44,65
32.52,89
32.6,64
32.68,61
32.76,94
32.84,69
32.92,81
33,64
33.08,80
33.16,80
33.24,74
33.32,67
33.4,53
33.48,50
33.56,59
33.64,46
33.72,53
33.8,36
33.88,47
33.96,51
34.04,54
34.12,41
34.2,70
34.28,50
34.36,52
34.44,86
34.52,66
34.6,83
34.68,72
34.76,95
34.84,105
34.92,108
35,118
35.08,130
35.16,168
35.24,271
35.32,510
35.4,895
35.48,1433
35.56,1610
35.64,775
35.72,450
35.8,246
35.88,182
35.96,136
36.04,132
36.12,93
36.2,98
36.28,95
36.36,113
36.44,103
36.52,130
36.6,126
36.68,146
36.76,199
36.84,220
36.92,295
37,427
37.08,714
37.16,1398
37.24,3007
37.32,4980
37.4,3954
37.48,1482
37.56,779
37.64,477
37.72,316
37.8,260
37.88,191
37.96,162
38.04,130
38.12,122
38.2,122
38.28,95
38.36,74
38.44,64
38.52,90
38.6,98
38.68,62
38.76,57
38.84,63
38.92,49
39,86
39.08,83
39.16,67
39.24,84
39.32,82
39.4,85
39.48,88
39.56,76
39.64,95
39.72,72
39.8,67
39.88,85
39.96,78
40.04,66
40.12,64
40.2,98
40.28,112
40.36,83
40.44,84
40.52,98
40.6,91
40.68,136
40.76,142
40.84,139
40.92,169
41,182
41.08,203
41.16,228
41.24,239
41.32,297
41.4,326
41.48,391
41.56,492
41.64,707
41.72,1056
41.8,1912
41.88,3845
41.96,5943
42.04,5930
42.12,6309
42.2,9457
42.28,8590
42.36,4116
42.44,2326
42.52,1297
42.6,896
42.68,697
42.76,540
42.84,492
42.92,454
43,429
43.08,420
43.16,454
43.24,520
43.32,597
43.4,745
43.48,1030
43.56,1663
43.64,3224
43.72,7028
43.8,11577
43.88,10028
43.96,4769
44.04,3084
44.12,2292
44.2,1492
44.28,873
44.36,652
44.44,538
44.52,488
44.6,505
44.68,527
44.76,662
44.84,951
44.92,1741
45,3654
45.08,8107
45.16,8036
45.24,1495
45.32,828
45.4,697
45.48,491
45.56,357
45.64,306
45.72,256
45.8,188
45.88,192
45.96,163
46.04,140
46.12,135
46.2,118
46.28,109
46.36,90
46.44,92
46.52,66
46.6,73
46.68,73
46.76,74
46.84,57
46.92,85
47,63
47.08,62
47.16,98
47.24,75
47.32,90
47.4,78
47.48,99
47.56,109
47.64,117
47.72,149
47.8,238
47.88,427
47.96,549
48.04,351
48.12,163
48.2,128
48.28,74
48.36,89
48.44,85
48.52,73
48.6,56
48.68,63
48.76,60
48.84,55
48.92,41
49,37
49.08,69
49.16,81
49.24,50
49.32,50
49.4,60
49.48,55
49.56,109
49.64,142
49.72,188
49.8,331
49.88,394
49.96,428
50.04,398
50.12,492
50.2,219
50.28,144
50.36,114
50.44,104
50.52,137
50.6,115
50.68,102
50.76,83
50.84,69
50.92,52
51,58
51.08,69
51.16,50
51.24,35
51.32,29
51.4,60
51.48,71
51.56,37
51.64,34
51.72,42
51.8,29
51.88,67
51.96,65
52.04,49
52.12,67
52.2,65
52.28,68
52.36,69
52.44,51
52.52,70
52.6,47
52.68,40
52.76,56
52.84,47
52.92,33
53,28
53.08,59
53.16,70
53.24,37
53.32,34
53.4,42
53.48,29
53.56,67
53.64,66
53.72,50
53.8,68
53.88,66
53.96,69
54.04,72
54.12,54
54.2,73
54.28,49
54.36,42
54.44,58
54.52,49
54.6,36
54.68,31
54.76,62
54.84,74
54.92,41
55,39
55.08,47
55.16,35
55.24,76
55.32,76
55.4,76
55.48,68
55.56,107
55.64,150
55.72,186
55.8,137
55.88,86
55.96,66
56.04,69
56.12,61
56.2,59
56.28,46
56.36,53
56.44,36
56.52,47
56.6,51
56.68,54
56.76,40
56.84,70
56.92,49
57,50
57.08,87
57.16,65
57.24,80
57.32,66
57.4,84
57.48,88
57.56,65
57.64,93
57.72,105
57.8,117
57.88,99
57.96,74
58.04,86
58.12,107
58.2,144
58.28,138
58.36,169
58.44,222
58.52,403
58.6,749
58.68,1098
58.76,800
58.84,468
58.92,285
59,248
59.08,271
59.16,270
59.24,189
59.32,199
59.4,174
59.48,196
59.56,273
59.64,345
59.72,589
59.8,1167
59.88,2385
59.96,2962
60.04,1757
60.12,809
60.2,471
60.28,310
60.36,277
60.44,361
60.52,475
60.6,673
60.68,641
60.76,491
60.84,288
60.92,177
61,157
61.08,109
61.16,108
61.24,100
61.32,111
61.4,93
61.48,109
61.56,92
61.64,92
61.72,116
61.8,94
61.88,98
61.96,103
62.04,126
62.12,118
62.2,132
62.28,164
62.36,174
62.44,232
62.52,463
62.6,729
62.68,972
62.76,842
62.84,549
62.92,430
63,492
63.08,705
63.16,1328
63.24,2586
63.32,3417
63.4,2127
63.48,990
63.56,549
63.64,423
63.72,426
63.8,619
63.88,816
63.96,759
64.04,453
64.12,268
64.2,221
64.28,168
64.36,171
64.44,176
64.52,211
64.6,239
64.68,361
64.76,652
64.84,1131
64.92,1652
65,1662
65.08,1086
65.16,526
65.24,292
65.32,222
65.4,157
65.48,140
65.56,128
65.64,119
65.72,100
65.8,109
65.88,76
65.96,82
66.04,79
66.12,93
66.2,76
66.28,93
66.36,75
66.44,74
66.52,96
66.6,71
66.68,72
66.76,72
66.84,89
66.92,72
67,74
67.08,87
67.16,65
67.24,60
67.32,75
67.4,74
67.48,101
67.56,105
67.64,108
67.72,73
67.8,90
67.88,77
67.96,97
68.04,83
68.12,88
68.2,118
68.28,111
68.36,151
68.44,249
68.52,266
68.6,216
68.68,167
68.76,162
68.84,127
68.92,159
69,178
69.08,194
69.16,210
69.24,322
69.32,476
69.4,921
69.48,1584
69.56,2070
69.64,1552
69.72,931
69.8,469
69.88,304
69.96,220
70.04,210
70.12,195
70.2,332
70.28,302
70.36,197
70.44,154
70.52,140
70.6,103
70.68,103
70.76,102
70.84,100
70.92,86
71,100
71.08,69
71.16,78
71.24,77
71.32,92
71.4,77
71.48,95
71.56,78
71.64,79
71.72,102
71.8,79
71.88,81
71.96,84
72.04,103
72.12,88
72.2,94
72.28,112
72.36,96
72.44,101
72.52,131
72.6,153
72.68,229
72.76,347
72.84,635
72.92,841
73,1007
73.08,789
73.16,478
73.24,274
73.32,240
73.4,199
73.48,137
73.56,160
73.64,155
73.72,133
73.8,158
73.88,191
73.96,284
74.04,491
74.12,776
74.2,480
74.28,329
74.36,448
74.44,528
74.52,578
74.6,332
74.68,219
74.76,206
74.84,213
74.92,212
75,308
75.08,507
75.16,697
75.24,623
75.32,444
75.4,287
75.48,220
75.56,142
75.64,141
75.72,127
75.8,123
75.88,100
75.96,92
76.04,96
76.12,95
76.2,101
76.28,114
76.36,107
76.44,99
76.52,106
76.6,80
76.68,97
76.76,77
76.84,80
76.92,119
77,102
77.08,111
77.16,128
77.24,133
77.32,172
77.4,193
77.48,125
77.56,129
77.64,122
77.72,120
77.8,89
77.88,94
77.96,96
78.04,97
78.12,85
78.2,100
78.28,72
78.36,83
78.44,83
78.52,101
78.6,88
78.68,108
78.76,95
78.84,100
78.92,129
79,114
79.08,129
79.16,152
79.24,208
79.32,266
79.4,420
79.48,631
79.56,903
79.64,990
79.72,705
79.8,408
79.88,299
79.96,209
80.04,157
80.12,146
80.2,115
80.28,139
80.36,110
80.44,141
80.52,113
80.6,113
80.68,148
80.76,134
80.84,166
80.92,205
81,263
81.08,384
81.16,703
81.24,1189
81.32,1059
81.4,636
81.48,383
81.56,288
81.64,229
81.72,246
81.8,260
81.88,250
81.96,298
82.04,336
82.12,461
82.2,792
82.28,1339
82.36,1960
82.44,1607
82.52,1138
82.6,1008
82.68,793
82.76,557
82.84,393
82.92,272
83,217
83.08,170
83.16,198
83.24,204
83.32,198
83.4,276
83.48,366
83.56,498
83.64,473
83.72,372
83.8,311
83.88,283
83.96,271
84.04,212
84.12,150
84.2,158
84.28,144
84.36,94
84.44,128
84.52,113
84.6,124
84.68,87
84.76,99
84.84,114
84.92,109
85,98
85.08,96
85.16,113
85.24,154
85.32,189
85.4,140
85.48,149
85.56,133
85.64,165
85.72,194
85.8,282
85.88,349
85.96,340
86.04,310
86.12,342
86.2,290
86.28,205
86.36,175
86.44,141
86.52,138
86.6,116
86.68,119
86.76,115
86.84,138
86.92,132
87,87
87.08,90
87.16,92
87.24,91
87.32,75
87.4,93
87.48,55
87.56,67
87.64,62
87.72,72
87.8,62
87.88,64
87.96,85
88.04,71
88.12,69
88.2,104
88.28,73
88.36,86
88.44,103
88.52,84
88.6,104
88.68,67
88.76,99
88.84,110
88.92,152
89,170
89.08,159
89.16,150
89.24,112
89.32,109
89.4,92
89.48,110
89.56,80
89.64,95
89.72,79
89.8,56
89.88,81
89.96,91
90.04,82
90.12,96
90.2,70
90.28,63
90.36,59
90.44,112
90.52,90
90.6,95
90.68,80
90.76,82
90.84,116
90.92,98
91,91
91.08,103
91.16,147
91.24,167
91.32,295
91.4,390
91.48,436
91.56,459
91.64,301
91.72,211
91.8,157
91.88,248
91.96,312
92.04,429
92.12,759
92.2,834
92.28,709
92.36,475
92.44,322
92.52,224
92.6,169
92.68,144
92.76,135
92.84,101
92.92,95
93,88
93.08,103
93.16,82
93.24,78
93.32,118
93.4,82
93.48,78
93.56,65
93.64,95
93.72,72
93.8,73
93.88,72
93.96,59
94.04,72
94.12,67
94.2,59
94.28,54
94.36,96
94.44,81
94.52,73
94.6,70
94.68,81
94.76,71
94.84,91
94.92,79
95,99
95.08,122
95.16,95
95.24,122
95.32,127
95.4,121
95.48,189
95.56,282
95.64,344
95.72,310
95.8,333
95.88,201
95.96,189
96.04,166
96.12,305
96.2,427
96.28,543
96.36,768
96.44,1060
96.52,1266
96.6,1300
96.68,1007
96.76,677
96.84,339
96.92,228
97,209
97.08,183
97.16,260
97.24,339
97.32,395
97.4,459
97.48,404
97.56,348
97.64,271
97.72,168
97.8,144
97.88,131
97.96,146
98.04,95
98.12,134
98.2,148
98.28,132
98.36,180
98.44,237
98.52,265
98.6,312
98.68,253
98.76,210
98.84,207
98.92,151
99,104
99.08,129
99.16,87
99.24,75
99.32,90
99.4,70
99.48,85
99.56,101
99.64,89
99.72,122
99.8,96
99.88,129
99.96,154
100.04,269
100.12,580
100.2,819
100.28,470
100.36,225
100.44,170
100.52,110
100.6,132
100.68,81
100.76,128
100.84,88
100.92,59
101,85
101.08,70
101.16,66
101.24,80
101.32,70
101.4,78
101.48,73
101.56,69
101.64,76
101.72,79
101.8,101
101.88,70
101.96,55
102.04,68
102.12,94
102.2,94
102.28,80
102.36,82
102.44,66
102.52,76
102.6,91
102.68,95
102.76,67
102.84,95
102.92,85
103,83
103.08,121
103.16,101
103.24,129
103.32,135
103.4,166
103.48,207
103.56,266
103.64,400
103.72,587
103.8,800
103.88,909
103.96,738
104.04,410
104.12,318
104.2,221
104.28,156
104.36,149
104.44,112
104.52,175
104.6,224
104.68,210
104.76,220
104.84,175
104.92,148
105,107
105.08,95
105.16,116
105.24,98
105.32,80
105.4,89
105.48,85
105.56,68
105.64,100
105.72,85
105.8,71
105.88,114
105.96,80
106.04,79
106.12,98
106.2,97
106.28,72
106.36,67
106.44,87
106.52,93
106.6,69
106.68,83
106.76,108
106.84,116
106.92,150
107,205
107.08,343
107.16,405
107.24,412
107.32,395
107.4,259
107.48,164
107.56,118
107.64,136
107.72,108
107.8,94
107.88,107
107.96,99
108.04,84
108.12,85
108.2,142
108.28,174
108.36,149
108.44,194
108.52,285
108.6,366
108.68,451
108.76,458
108.84,423
108.92,315
109,211
109.08,156
109.16,107
109.24,132
109.32,95
109.4,111
109.48,106
109.56,92
109.64,75
109.72,106
109.8,65
109.88,95
109.96,88
110.04,91
110.12,93
110.2,106
110.28,84
110.36,70
110.44,105
110.52,94
110.6,129
110.68,135
110.76,146
110.84,162
110.92,174
111,143
111.08,152
111.16,165
111.24,266
111.32,336
111.4,221
111.48,166
111.56,168
111.64,140
111.72,146
111.8,125
111.88,160
111.96,149
112.04,202
112.12,249
112.2,335
112.28,465
112.36,601
112.44,719
112.52,586
112.6,496
112.68,422
112.76,364
112.84,357
112.92,308
113,298
113.08,353
113.16,421
113.24,492
113.32,505
113.4,420
113.48,293
113.56,245
113.64,219
113.72,161
113.8,139
113.88,143
113.96,164
114.04,194
114.12,179
114.2,115
114.28,126
114.36,140
114.44,111
114.52,153
114.6,138
114.68,195
114.76,223
114.84,246
114.92,275
115,208
115.08,193
115.16,171
115.24,200
115.32,202
115.4,226
115.48,301
115.56,465
115.64,706
115.72,748
115.8,571
115.88,435
115.96,270
116.04,241
116.12,194
116.2,168
116.28,188
116.36,189
116.44,183
116.52,208
116.6,277
116.68,343
116.76,411
116.84,509
116.92,512
117,458
117.08,426
117.16,415
117.24,402
117.32,337
117.4,256
117.48,250
117.56,192
117.64,172
117.72,165
117.8,155
117.88,202
117.96,181
118.04,220
118.12,259
118.2,327
118.28,322
118.36,353
118.44,380
118.52,342
118.6,284
118.68,268
118.76,254
118.84,259
118.92,212
119,168
119.08,158
119.16,158
119.24,141
119.32,124
119.4,122
119.48,122
119.56,120
119.64,164
119.72,114
119.8,98
119.88,107
119.96,118
120,85