File: data/xrd_icdd_PDF/00-050-1474 (PD3).csv
7,474
7.08,460
7.16,477
7.24,464
7.32,468
7.4,449
7.48,471
7.56,419
7.64,420
7.72,458
7.8,474
7.88,437
7.96,468
8.04,438
8.12,460
8.2,431
8.28,481
8.36,458
8.44,464
8.52,476
8.6,477
8.68,499
8.76,542
8.84,432
8.92,450
9,443
9.08,413
9.16,417
9.24,392
9.32,407
9.4,413
9.48,415
9.56,435
9.64,383
9.72,431
9.8,399
9.88,404
9.96,377
10.04,409
10.12,408
10.2,351
10.28,355
10.36,422
10.44,368
10.52,384
10.6,396
10.68,376
10.76,435
10.84,396
10.92,370
11,377
11.08,389
11.16,372
11.24,349
11.32,383
11.4,353
11.48,362
11.56,391
11.64,384
11.72,373
11.8,377
11.88,351
11.96,369
12.04,348
12.12,338
12.2,331
12.28,360
12.36,370
12.44,333
12.52,363
12.6,335
12.68,358
12.76,383
12.84,378
12.92,447
13,425
13.08,346
13.16,348
13.24,319
13.32,339
13.4,304
13.48,329
13.56,363
13.64,328
13.72,368
13.8,314
13.88,316
13.96,349
14.04,337
14.12,359
14.2,346
14.28,343
14.36,347
14.44,322
14.52,329
14.6,345
14.68,352
14.76,347
14.84,367
14.92,344
15,467
15.08,367
15.16,361
15.24,342
15.32,357
15.4,326
15.48,328
15.56,346
15.64,349
15.72,322
15.8,335
15.88,344
15.96,307
16.04,327
16.12,347
16.2,329
16.28,294
16.36,319
16.44,339
16.52,340
16.6,339
16.68,322
16.76,288
16.84,352
16.92,322
17,354
17.08,336
17.16,337
17.24,291
17.32,345
17.4,458
17.48,670
17.56,526
17.64,393
17.72,374
17.8,321
17.88,323
17.96,361
18.04,332
18.12,338
18.2,301
18.28,317
18.36,340
18.44,330
18.52,306
18.6,315
18.68,305
18.76,315
18.84,313
18.92,284
19,320
19.08,332
19.16,314
19.24,316
19.32,350
19.4,324
19.48,315
19.56,331
19.64,327
19.72,321
19.8,312
19.88,319
19.96,295
20.04,290
20.12,300
20.2,303
20.28,302
20.36,318
20.44,307
20.52,292
20.6,311
20.68,307
20.76,302
20.84,302
20.92,317
21,334
21.08,307
21.16,296
21.24,302
21.32,310
21.4,304
21.48,341
21.56,301
21.64,349
21.72,330
21.8,302
21.88,323
21.96,332
22.04,308
22.12,293
22.2,350
22.28,307
22.36,333
22.44,282
22.52,311
22.6,304
22.68,324
22.76,307
22.84,272
22.92,283
23,286
23.08,316
23.16,264
23.24,307
23.32,310
23.4,308
23.48,255
23.56,294
23.64,244
23.72,285
23.8,283
23.88,273
23.96,289
24.04,262
24.12,284
24.2,264
24.28,307
24.36,324
24.44,303
24.52,315
24.6,244
24.68,285
24.76,325
24.84,327
24.92,338
25,281
25.08,313
25.16,350
25.24,302
25.32,288
25.4,269
25.48,272
25.56,285
25.64,286
25.72,273
25.8,280
25.88,218
25.96,271
26.04,237
26.12,290
26.2,288
26.28,328
26.36,441
26.44,375
26.52,300
26.6,291
26.68,294
26.76,263
26.84,259
26.92,251
27,254
27.08,281
27.16,268
27.24,233
27.32,281
27.4,282
27.48,266
27.56,275
27.64,237
27.72,253
27.8,302
27.88,371
27.96,333
28.04,276
28.12,266
28.2,288
28.28,288
28.36,315
28.44,301
28.52,319
28.6,301
28.68,267
28.76,248
28.84,248
28.92,265
29,248
29.08,244
29.16,284
29.24,220
29.32,230
29.4,255
29.48,298
29.56,222
29.64,235
29.72,221
29.8,243
29.88,229
29.96,242
30.04,265
30.12,235
30.2,256
30.28,245
30.36,257
30.44,275
30.52,265
30.6,249
30.68,276
30.76,215
30.84,256
30.92,242
31,272
31.08,228
31.16,227
31.24,239
31.32,230
31.4,261
31.48,234
31.56,249
31.64,228
31.72,228
31.8,264
31.88,261
31.96,231
32.04,234
32.12,260
32.2,262
32.28,258
32.36,276
32.44,244
32.52,234
32.6,270
32.68,257
32.76,284
32.84,291
32.92,341
33,564
33.08,1759
33.16,1876
33.24,911
33.32,914
33.4,616
33.48,376
33.56,302
33.64,263
33.72,340
33.8,466
33.88,451
33.96,305
34.04,368
34.12,734
34.2,1924
34.28,2697
34.36,1312
34.44,465
34.52,275
34.6,246
34.68,295
34.76,244
34.84,331
34.92,360
35,304
35.08,279
35.16,337
35.24,409
35.32,829
35.4,4376
35.48,10687
35.56,6262
35.64,1100
35.72,408
35.8,370
35.88,316
35.96,279
36.04,279
36.12,259
36.2,270
36.28,294
36.36,298
36.44,385
36.52,529
36.6,324
36.68,268
36.76,254
36.84,250
36.92,263
37,249
37.08,244
37.16,275
37.24,248
37.32,324
37.4,405
37.48,578
37.56,1237
37.64,1695
37.72,901
37.8,397
37.88,323
37.96,263
38.04,291
38.12,387
38.2,525
38.28,430
38.36,324
38.44,266
38.52,270
38.6,231
38.68,234
38.76,223
38.84,222
38.92,240
39,221
39.08,240
39.16,231
39.24,255
39.32,249
39.4,268
39.48,286
39.56,361
39.64,370
39.72,653
39.8,1828
39.88,1584
39.96,491
40.04,312
40.12,241
40.2,256
40.28,260
40.36,246
40.44,214
40.52,232
40.6,250
40.68,381
40.76,790
40.84,849
40.92,573
41,571
41.08,517
41.16,293
41.24,250
41.32,304
41.4,364
41.48,515
41.56,503
41.64,397
41.72,541
41.8,1198
41.88,931
41.96,459
42.04,320
42.12,299
42.2,256
42.28,241
42.36,228
42.44,261
42.52,276
42.6,275
42.68,225
42.76,252
42.84,241
42.92,229
43,233
43.08,264
43.16,253
43.24,428
43.32,530
43.4,543
43.48,747
43.56,1130
43.64,1214
43.72,2150
43.8,4243
43.88,2776
43.96,780
44.04,425
44.12,385
44.2,442
44.28,447
44.36,326
44.44,264
44.52,251
44.6,315
44.68,573
44.76,485
44.84,321
44.92,255
45,227
45.08,254
45.16,256
45.24,232
45.32,261
45.4,249
45.48,262
45.56,460
45.64,1269
45.72,1551
45.8,746
45.88,348
45.96,299
46.04,268
46.12,267
46.2,269
46.28,237
46.36,239
46.44,246
46.52,288
46.6,317
46.68,460
46.76,605
46.84,550
46.92,410
47,344
47.08,350
47.16,303
47.24,286
47.32,304
47.4,646
47.48,1250
47.56,1096
47.64,568
47.72,364
47.8,275
47.88,257
47.96,228
48.04,252
48.12,196
48.2,195
48.28,203
48.36,235
48.44,206
48.52,250
48.6,213
48.68,235
48.76,211
48.84,222
48.92,266
49,352
49.08,490
49.16,327
49.24,393
49.32,411
49.4,310
49.48,233
49.56,213
49.64,252
49.72,233
49.8,245
49.88,238
49.96,326
50.04,566
50.12,1060
50.2,1274
50.28,1214
50.36,734
50.44,400
50.52,264
50.6,236
50.68,213
50.76,198
50.84,205
50.92,212
51,271
51.08,316
51.16,291
51.24,268
51.32,294
51.4,362
51.48,322
51.56,267
51.64,241
51.72,231
51.8,260
51.88,261
51.96,268
52.04,236
52.12,205
52.2,213
52.28,216
52.36,215
52.44,206
52.52,207
52.6,189
52.68,204
52.76,219
52.84,206
52.92,196
53,180
53.08,188
53.16,203
53.24,212
53.32,224
53.4,195
53.48,189
53.56,200
53.64,231
53.72,237
53.8,266
53.88,291
53.96,283
54.04,264
54.12,224
54.2,213
54.28,259
54.36,185
54.44,217
54.52,251
54.6,291
54.68,241
54.76,211
54.84,212
54.92,211
55,197
55.08,211
55.16,213
55.24,185
55.32,212
55.4,191
55.48,231
55.56,203
55.64,226
55.72,236
55.8,283
55.88,412
55.96,692
56.04,854
56.12,611
56.2,359
56.28,301
56.36,257
56.44,249
56.52,209
56.6,180
56.68,203
56.76,203
56.84,193
56.92,220
57,258
57.08,228
57.16,223
57.24,246
57.32,182
57.4,235
57.48,245
57.56,317
57.64,297
57.72,262
57.8,206
57.88,205
57.96,194
58.04,170
58.12,212
58.2,203
58.28,223
58.36,230
58.44,245
58.52,227
58.6,202
58.68,211
58.76,218
58.84,233
58.92,279
59,349
59.08,366
59.16,280
59.24,276
59.32,233
59.4,282
59.48,321
59.56,348
59.64,234
59.72,213
59.8,208
59.88,203
59.96,219
60.04,214
60.12,234
60.2,283
60.28,260
60.36,247
60.44,324
60.52,386
60.6,566
60.68,627
60.76,454
60.84,273
60.92,224
61,208
61.08,238
61.16,182
61.24,221
61.32,186
61.4,195
61.48,262
61.56,250
61.64,216
61.72,219
61.8,226
61.88,228
61.96,206
62.04,236
62.12,242
62.2,344
62.28,377
62.36,307
62.44,223
62.52,208
62.6,183
62.68,216
62.76,201
62.84,257
62.92,315
63,379
63.08,276
63.16,248
63.24,254
63.32,234
63.4,286
63.48,300
63.56,253
63.64,227
63.72,262
63.8,288
63.88,285
63.96,346
64.04,314
64.12,252
64.2,285
64.28,384
64.36,455
64.44,344
64.52,271
64.6,259
64.68,199
64.76,229
64.84,240
64.92,209
65,220
65.08,223
65.16,290
65.24,279
65.32,245
65.4,223
65.48,225
65.56,263
65.64,226
65.72,223
65.8,252
65.88,204
65.96,209
66.04,188
66.12,194
66.2,228
66.28,227
66.36,242
66.44,317
66.52,568
66.6,781
66.68,563
66.76,337
66.84,237
66.92,229
67,261
67.08,218
67.16,207
67.24,259
67.32,260
67.4,264
67.48,247
67.56,242
67.64,248
67.72,265
67.8,319
67.88,281
67.96,240
68.04,224
68.12,200
68.2,196
68.28,208
68.36,236
68.44,267
68.52,286
68.6,320
68.68,440
68.76,691
68.84,963
68.92,674
69,377
69.08,270
69.16,233
69.24,226
69.32,218
69.4,264
69.48,248
69.56,264
69.64,279
69.72,217
69.8,257
69.88,272
69.96,260
70.04,282
70.12,246
70.2,233
70.28,200
70.36,237
70.44,228
70.52,230
70.6,236
70.68,228
70.76,226
70.84,227
70.92,221
71,256
71.08,265
71.16,242
71.24,228
71.32,183
71.4,213
71.48,200
71.56,196
71.64,186
71.72,175
71.8,178
71.88,207
71.96,192
72.04,206
72.12,183
72.2,202
72.28,180
72.36,198
72.44,204
72.52,194
72.6,189
72.68,199
72.76,234
72.84,285
72.92,269
73,242
73.08,233
73.16,235
73.24,195
73.32,209
73.4,214
73.48,270
73.56,273
73.64,350
73.72,408
73.8,334
73.88,285
73.96,260
74.04,267
74.12,324
74.2,308
74.28,360
74.36,348
74.44,321
74.52,226
74.6,255
74.68,214
74.76,226
74.84,329
74.92,454
75,691
75.08,892
75.16,653
75.24,453
75.32,327
75.4,324
75.48,305
75.56,260
75.64,251
75.72,230
75.8,231
75.88,218
75.96,184
76.04,238
76.12,203
76.2,219
76.28,236
76.36,231
76.44,240
76.52,260
76.6,307
76.68,307
76.76,285
76.84,242
76.92,222
77,199
77.08,193
77.16,211
77.24,199
77.32,218
77.4,191
77.48,193
77.56,209
77.64,209
77.72,253
77.8,279
77.88,280
77.96,199
78.04,206
78.12,198
78.2,203
78.28,207
78.36,185
78.44,184
78.52,209
78.6,188
78.68,180
78.76,210
78.84,215
78.92,235
79,303
79.08,330
79.16,316
79.24,295
79.32,286
79.4,278
79.48,287
79.56,292
79.64,296
79.72,272
79.8,294
79.88,345
79.96,266
80.04,250
80.12,256
80.2,267
80.28,270
80.36,280
80.44,298
80.52,264
80.6,214
80.68,255
80.76,244
80.84,218
80.92,236
81,247
81.08,284
81.16,256
81.24,244
81.32,235
81.4,244
81.48,255
81.56,257
81.64,284
81.72,269
81.8,310
81.88,308
81.96,276
82.04,245
82.12,242
82.2,249
82.28,226
82.36,283
82.44,279
82.52,237
82.6,237
82.68,202
82.76,224
82.84,195
82.92,213
83,200
83.08,208
83.16,189
83.24,194
83.32,202
83.4,220
83.48,193
83.56,169
83.64,204
83.72,194
83.8,192
83.88,188
83.96,180
84.04,190
84.12,206
84.2,199
84.28,214
84.36,224
84.44,200
84.52,231
84.6,272
84.68,272
84.76,261
84.84,230
84.92,221
85,235
85.08,243
85.16,250
85.24,238
85.32,227
85.4,225
85.48,201
85.56,198
85.64,188
85.72,214
85.8,245
85.88,269
85.96,222
86.04,203
86.12,209
86.2,195
86.28,185
86.36,216
86.44,222
86.52,207
86.6,220
86.68,256
86.76,249
86.84,198
86.92,216
87,223
87.08,228
87.16,265
87.24,297
87.32,334
87.4,330
87.48,285
87.56,206
87.64,211
87.72,191
87.8,204
87.88,191
87.96,168
88.04,180
88.12,177
88.2,187
88.28,183
88.36,201
88.44,205
88.52,189
88.6,207
88.68,218
88.76,239
88.84,237
88.92,244
89,251
89.08,311
89.16,217
89.24,215
89.32,228
89.4,197
89.48,166
89.56,237
89.64,244
89.72,277
89.8,263
89.88,251
89.96,235
90.04,220
90.12,206
90.2,211
90.28,209
90.36,211
90.44,228
90.52,240
90.6,218
90.68,217
90.76,180
90.84,215
90.92,204
91,243
91.08,217
91.16,268
91.24,217
91.32,269
91.4,255
91.48,301
91.56,314
91.64,296
91.72,272
91.8,252
91.88,220
91.96,196
92.04,202
92.12,235
92.2,219
92.28,213
92.36,245
92.44,200
92.52,202
92.6,200
92.68,226
92.76,185
92.84,176
92.92,205
93,192
93.08,219
93.16,224
93.24,249
93.32,191
93.4,193
93.48,200
93.56,227
93.64,188
93.72,249
93.8,258
93.88,205
93.96,190
94.04,199
94.12,181
94.2,167
94.28,195
94.36,215
94.44,201
94.52,198
94.6,163
94.68,213
94.76,193
94.84,209
94.92,208
95,199
95.08,221
95.16,230
95.24,272
95.32,247
95.4,235
95.48,212
95.56,226
95.64,180
95.72,179
95.8,173
95.88,197
95.96,209
96.04,229
96.12,216
96.2,256
96.28,284
96.36,288
96.44,315
96.52,339
96.6,356
96.68,319
96.76,282
96.84,288
96.92,258
97,239
97.08,190
97.16,226
97.24,198
97.32,206
97.4,221
97.48,225
97.56,240
97.64,220
97.72,218
97.8,251
97.88,260
97.96,212
98.04,215
98.12,195
98.2,208
98.28,183
98.36,189
98.44,200
98.52,181
98.6,192
98.68,182
98.76,182
98.84,179
98.92,184
99,194
99.08,198
99.16,189
99.24,195
99.32,207
99.4,188
99.48,184
99.56,189
99.64,186
99.72,199
99.8,240
99.88,210
99.96,236
100,206