File: data/xrd_icdd_PDF/00-065-0726 (PD3).csv
2,25480
2.06,25188
2.12,25347
2.18,24848
2.24,23973
2.3,23105
2.36,22041
2.42,20855
2.48,19532
2.54,17763
2.6,16432
2.66,14982
2.72,13941
2.78,12812
2.84,11741
2.9,10905
2.96,9858
3.02,9018
3.08,8671
3.14,8085
3.2,7557
3.26,6948
3.32,6613
3.38,6183
3.44,6042
3.5,5680
3.56,5590
3.62,5311
3.68,5225
3.74,5097
3.8,4922
3.86,4721
3.92,4646
3.98,4500
4.04,4503
4.1,4248
4.16,4132
4.22,4005
4.28,3978
4.34,3886
4.4,3702
4.46,3643
4.52,3560
4.58,3325
4.64,3284
4.7,3182
4.76,3147
4.82,2963
4.88,2799
4.94,2789
5,2587
5.06,2499
5.12,2352
5.18,2313
5.24,2367
5.3,2165
5.36,2039
5.42,2019
5.48,1910
5.54,1861
5.6,1804
5.66,1695
5.72,1684
5.78,1651
5.84,1543
5.9,1563
5.96,1463
6.02,1456
6.08,1383
6.14,1369
6.2,1244
6.26,1262
6.32,1259
6.38,1155
6.44,1144
6.5,1138
6.56,1046
6.62,1056
6.68,1034
6.74,1022
6.8,1007
6.86,952
6.92,920
6.98,974
7.04,919
7.1,879
7.16,798
7.22,808
7.28,826
7.34,792
7.4,724
7.46,694
7.52,730
7.58,656
7.64,696
7.7,712
7.76,728
7.82,693
7.88,655
7.94,677
8,648
8.06,622
8.12,599
8.18,572
8.24,584
8.3,563
8.36,546
8.42,581
8.48,536
8.54,486
8.6,527
8.66,502
8.72,516
8.78,540
8.84,475
8.9,482
8.96,450
9.02,480
9.08,438
9.14,446
9.2,468
9.26,421
9.32,470
9.38,439
9.44,453
9.5,426
9.56,426
9.62,432
9.68,434
9.74,441
9.8,402
9.86,375
9.92,399
9.98,407
10.04,371
10.1,359
10.16,368
10.22,348
10.28,350
10.34,316
10.4,376
10.46,375
10.52,338
10.58,329
10.64,344
10.7,359
10.76,339
10.82,343
10.88,357
10.94,349
11,324
11.06,321
11.12,307
11.18,345
11.24,356
11.3,324
11.36,333
11.42,319
11.48,317
11.54,316
11.6,298
11.66,310
11.72,299
11.78,296
11.84,305
11.9,314
11.96,312
12.02,290
12.08,325
12.14,301
12.2,337
12.26,330
12.32,284
12.38,297
12.44,302
12.5,281
12.56,283
12.62,305
12.68,276
12.74,310
12.8,285
12.86,268
12.92,298
12.98,290
13.04,286
13.1,288
13.16,253
13.22,280
13.28,299
13.34,301
13.4,274
13.46,289
13.52,302
13.58,281
13.64,272
13.7,280
13.76,280
13.82,292
13.88,278
13.94,239
14,243
14.06,285
14.12,264
14.18,285
14.24,276
14.3,253
14.36,281
14.42,264
14.48,261
14.54,274
14.6,279
14.66,290
14.72,257
14.78,267
14.84,264
14.9,237
14.96,265
15.02,249
15.08,261
15.14,241
15.2,256
15.26,266
15.32,277
15.38,292
15.44,263
15.5,248
15.56,279
15.62,270
15.68,267
15.74,274
15.8,275
15.86,248
15.92,270
15.98,276
16.04,259
16.1,278
16.16,285
16.22,276
16.28,267
16.34,277
16.4,264
16.46,253
16.52,284
16.58,279
16.64,285
16.7,307
16.76,271
16.82,283
16.88,278
16.94,284
17,284
17.06,243
17.12,281
17.18,326
17.24,266
17.3,295
17.36,264
17.42,275
17.48,283
17.54,304
17.6,291
17.66,289
17.72,310
17.78,294
17.84,271
17.9,284
17.96,279
18.02,278
18.08,312
18.14,285
18.2,308
18.26,278
18.32,292
18.38,318
18.44,286
18.5,308
18.56,298
18.62,293
18.68,310
18.74,298
18.8,300
18.86,275
18.92,313
18.98,309
19.04,266
19.1,310
19.16,278
19.22,290
19.28,283
19.34,330
19.4,296
19.46,331
19.52,332
19.58,340
19.64,307
19.7,302
19.76,327
19.82,326
19.88,309
19.94,324
20,339
20.06,308
20.12,341
20.18,308
20.24,347
20.3,345
20.36,331
20.42,318
20.48,356
20.54,337
20.6,345
20.66,343
20.72,381
20.78,361
20.84,373
20.9,318
20.96,308
21.02,325
21.08,348
21.14,343
21.2,342
21.26,356
21.32,354
21.38,358
21.44,349
21.5,356
21.56,331
21.62,350
21.68,337
21.74,356
21.8,361
21.86,335
21.92,339
21.98,361
22.04,337
22.1,352
22.16,326
22.22,341
22.28,327
22.34,348
22.4,345
22.46,357
22.52,351
22.58,371
22.64,356
22.7,359
22.76,377
22.82,348
22.88,358
22.94,352
23,349
23.06,370
23.12,359
23.18,344
23.24,341
23.3,356
23.36,342
23.42,329
23.48,347
23.54,331
23.6,353
23.66,346
23.72,355
23.78,344
23.84,383
23.9,360
23.96,371
24.02,373
24.08,352
24.14,355
24.2,383
24.26,334
24.32,375
24.38,356
24.44,377
24.5,362
24.56,359
24.62,343
24.68,345
24.74,353
24.8,335
24.86,382
24.92,346
24.98,391
25.04,357
25.1,347
25.16,390
25.22,371
25.28,364
25.34,371
25.4,361
25.46,376
25.52,386
25.58,363
25.64,380
25.7,394
25.76,448
25.82,376
25.88,386
25.94,419
26,391
26.06,373
26.12,385
26.18,406
26.24,391
26.3,436
26.36,430
26.42,416
26.48,474
26.54,437
26.6,384
26.66,430
26.72,441
26.78,409
26.84,400
26.9,471
26.96,433
27.02,436
27.08,473
27.14,451
27.2,446
27.26,465
27.32,485
27.38,451
27.44,473
27.5,468
27.56,467
27.62,461
27.68,488
27.74,492
27.8,473
27.86,501
27.92,504
27.98,460
28.04,467
28.1,500
28.16,489
28.22,564
28.28,496
28.34,517
28.4,525
28.46,559
28.52,533
28.58,519
28.64,571
28.7,564
28.76,566
28.82,576
28.88,587
28.94,582
29,567
29.06,588
29.12,601
29.18,633
29.24,606
29.3,633
29.36,633
29.42,692
29.48,725
29.54,688
29.6,759
29.66,755
29.72,816
29.78,821
29.84,804
29.9,864
29.96,904
30.02,994
30.08,1009
30.14,1059
30.2,1036
30.26,1115
30.32,1249
30.38,1202
30.44,1248
30.5,1359
30.56,1390
30.62,1483
30.68,1486
30.74,1603
30.8,1537
30.86,1625
30.92,1694
30.98,1786
31.04,1863
31.1,1921
31.16,1914
31.22,1999
31.28,1940
31.34,2030
31.4,2019
31.46,2109
31.52,2091
31.58,2086
31.64,2049
31.7,2152
31.76,2126
31.82,2149
31.88,2082
31.94,2102
32,2037
32.06,2012
32.12,1975
32.18,1877
32.24,1932
32.3,1847
32.36,1774
32.42,1706
32.48,1801
32.54,1729
32.6,1699
32.66,1680
32.72,1611
32.78,1654
32.84,1584
32.9,1648
32.96,1669
33.02,1632
33.08,1547
33.14,1660
33.2,1606
33.26,1627
33.32,1694
33.38,1786
33.44,1765
33.5,1734
33.56,1789
33.62,1902
33.68,1926
33.74,1955
33.8,1959
33.86,2033
33.92,2111
33.98,2144
34.04,2194
34.1,2274
34.16,2303
34.22,2247
34.28,2320
34.34,2405
34.4,2454
34.46,2463
34.52,2403
34.58,2461
34.64,2483
34.7,2441
34.76,2587
34.82,2566
34.88,2592
34.94,2616
35,2657
35.06,2655
35.12,2603
35.18,2625
35.24,2721
35.3,2667
35.36,2695
35.42,2777
35.48,2785
35.54,2806
35.6,2821
35.66,2854
35.72,2960
35.78,2946
35.84,2827
35.9,2956
35.96,2851
36.02,2842
36.08,2860
36.14,2849
36.2,2927
36.26,2844
36.32,2705
36.38,2728
36.44,2625
36.5,2529
36.56,2527
36.62,2454
36.68,2316
36.74,2227
36.8,2152
36.86,2086
36.92,2031
36.98,1956
37.04,1795
37.1,1788
37.16,1640
37.22,1605
37.28,1396
37.34,1456
37.4,1303
37.46,1305
37.52,1178
37.58,1183
37.64,1072
37.7,1064
37.76,1005
37.82,924
37.88,941
37.94,812
38,792
38.06,810
38.12,721
38.18,704
38.24,667
38.3,645
38.36,659
38.42,540
38.48,562
38.54,554
38.6,523
38.66,481
38.72,479
38.78,467
38.84,463
38.9,452
38.96,454
39.02,435
39.08,465
39.14,420
39.2,432
39.26,392
39.32,406
39.38,385
39.44,397
39.5,416
39.56,398
39.62,383
39.68,393
39.74,390
39.8,374
39.86,362
39.92,395
39.98,381
40.04,354
40.1,366
40.16,315
40.22,355
40.28,345
40.34,359
40.4,365
40.46,342
40.52,368
40.58,356
40.64,323
40.7,386
40.76,351
40.82,334
40.88,365
40.94,346
41,336
41.06,374
41.12,313
41.18,349
41.24,339
41.3,351
41.36,323
41.42,368
41.48,307
41.54,332
41.6,349
41.66,352
41.72,340
41.78,332
41.84,348
41.9,337
41.96,301
42.02,310
42.08,310
42.14,360
42.2,314
42.26,304
42.32,309
42.38,305
42.44,331
42.5,349
42.56,321
42.62,301
42.68,328
42.74,319
42.8,326
42.86,341
42.92,320
42.98,322
43.04,334
43.1,321
43.16,300
43.22,364
43.28,322
43.34,311
43.4,323
43.46,335
43.52,314
43.58,291
43.64,309
43.7,309
43.76,314
43.82,382
43.88,333
43.94,318
44,350
44.06,367
44.12,316
44.18,363
44.24,379
44.3,343
44.36,326
44.42,341
44.48,378
44.54,350
44.6,356
44.66,352
44.72,345
44.78,408
44.84,378
44.9,413
44.96,410
45.02,384
45.08,420
45.14,392
45.2,418
45.26,425
45.32,457
45.38,448
45.44,445
45.5,395
45.56,461
45.62,494
45.68,455
45.74,500
45.8,510
45.86,512
45.92,517
45.98,507
46.04,560
46.1,605
46.16,569
46.22,570
46.28,644
46.34,599
46.4,631
46.46,619
46.52,617
46.58,685
46.64,725
46.7,739
46.76,742
46.82,752
46.88,776
46.94,761
47,724
47.06,773
47.12,820
47.18,768
47.24,761
47.3,781
47.36,835
47.42,797
47.48,785
47.54,786
47.6,762
47.66,752
47.72,782
47.78,801
47.84,731
47.9,702
47.96,737
48.02,699
48.08,628
48.14,671
48.2,642
48.26,630
48.32,633
48.38,641
48.44,630
48.5,620
48.56,563
48.62,565
48.68,571
48.74,565
48.8,548
48.86,545
48.92,512
48.98,498
49.04,473
49.1,480
49.16,509
49.22,466
49.28,473
49.34,447
49.4,469
49.46,415
49.52,391
49.58,427
49.64,415
49.7,414
49.76,421
49.82,377
49.88,387
49.94,380
50,355
50.06,397
50.12,387
50.18,382
50.24,385
50.3,354
50.36,352
50.42,369
50.48,378
50.54,351
50.6,380
50.66,343
50.72,355
50.78,392
50.84,323
50.9,369
50.96,351
51.02,381
51.08,335
51.14,378
51.2,350
51.26,356
51.32,327
51.38,349
51.44,377
51.5,369
51.56,370
51.62,348
51.68,358
51.74,367
51.8,338
51.86,321
51.92,376
51.98,319
52.04,324
52.1,379
52.16,346
52.22,331
52.28,347
52.34,328
52.4,347
52.46,333
52.52,351
52.58,367
52.64,330
52.7,389
52.76,346
52.82,368
52.88,378
52.94,369
53,366
53.06,349
53.12,400
53.18,345
53.24,418
53.3,390
53.36,399
53.42,403
53.48,419
53.54,391
53.6,455
53.66,434
53.72,411
53.78,415
53.84,410
53.9,448
53.96,447
54.02,433
54.08,501
54.14,452
54.2,504
54.26,481
54.32,524
54.38,475
54.44,492
54.5,557
54.56,588
54.62,612
54.68,575
54.74,660
54.8,619
54.86,658
54.92,650
54.98,727
55.04,736
55.1,716
55.16,797
55.22,843
55.28,876
55.34,850
55.4,860
55.46,892
55.52,924
55.58,906
55.64,1010
55.7,993
55.76,1043
55.82,1054
55.88,1079
55.94,1072
56,1066
56.06,1109
56.12,1158
56.18,1125
56.24,1119
56.3,1132
56.36,1146
56.42,1155
56.48,1151
56.54,1166
56.6,1131
56.66,1116
56.72,1145
56.78,1088
56.84,1060
56.9,1088
56.96,1044
57.02,966
57.08,974
57.14,943
57.2,966
57.26,937
57.32,840
57.38,919
57.44,844
57.5,819
57.56,792
57.62,756
57.68,678
57.74,730
57.8,718
57.86,660
57.92,675
57.98,620
58.04,642
58.1,589
58.16,630
58.22,556
58.28,558
58.34,556
58.4,521
58.46,494
58.52,495
58.58,450
58.64,484
58.7,504
58.76,468
58.82,418
58.88,443
58.94,429
59,432
59.06,446
59.12,416
59.18,437
59.24,440
59.3,451
59.36,409
59.42,427
59.48,435
59.54,439
59.6,429
59.66,435
59.72,430
59.78,438
59.84,415
59.9,432
59.96,403
60.02,364
60.08,381
60.14,412
60.2,431
60.26,490
60.32,460
60.38,418
60.44,479
60.5,440
60.56,444
60.62,504
60.68,561
60.74,503
60.8,570
60.86,603
60.92,580
60.98,561
61.04,585
61.1,650
61.16,633
61.22,640
61.28,625
61.34,701
61.4,653
61.46,684
61.52,739
61.58,766
61.64,764
61.7,834
61.76,789
61.82,825
61.88,823
61.94,823
62,804
62.06,876
62.12,924
62.18,912
62.24,890
62.3,886
62.36,966
62.42,923
62.48,916
62.54,981
62.6,912
62.66,935
62.72,928
62.78,933
62.84,911
62.9,933
62.96,953
63.02,881
63.08,909
63.14,852
63.2,836
63.26,859
63.32,826
63.38,809
63.44,791
63.5,725
63.56,694
63.62,727
63.68,694
63.74,684
63.8,691
63.86,709
63.92,644
63.98,599
64.04,632
64.1,588
64.16,606
64.22,575
64.28,575
64.34,562
64.4,565
64.46,549
64.52,510
64.58,516
64.64,555
64.7,550
64.76,509
64.82,513
64.88,501
64.94,481
65,511
65.06,519
65.12,503
65.18,511
65.24,534
65.3,540
65.36,560
65.42,514
65.48,533
65.54,536
65.6,563
65.66,539
65.72,593
65.78,616
65.84,622
65.9,624
65.96,582
66.02,606
66.08,633
66.14,683
66.2,610
66.26,718
66.32,752
66.38,721
66.44,766
66.5,795
66.56,754
66.62,835
66.68,776
66.74,808
66.8,817
66.86,865
66.92,857
66.98,886
67.04,819
67.1,909
67.16,940
67.22,925
67.28,955
67.34,972
67.4,992
67.46,954
67.52,1041
67.58,957
67.64,998
67.7,1039
67.76,923
67.82,965
67.88,921
67.94,994
68,1010
68.06,978
68.12,987
68.18,971
68.24,936
68.3,952
68.36,969
68.42,899
68.48,875
68.54,863
68.6,925
68.66,851
68.72,861
68.78,799
68.84,821
68.9,804
68.96,782
69.02,737
69.08,750
69.14,766
69.2,692
69.26,705
69.32,670
69.38,646
69.44,639
69.5,612
69.56,589
69.62,606
69.68,550
69.74,560
69.8,473
69.86,523
69.92,510
69.98,457
70,468