File: data/xrd_icdd_PDF/00-060-0123 (PD3).csv
4.77366,3127.61
4.85366,3083.21
4.93366,2851.64
5.01366,2941.14
5.09366,2971.2
5.17366,2941.73
5.25366,2974.55
5.33366,2900.33
5.41366,2953.43
5.49366,2852.45
5.57366,2964.9
5.65366,2992.35
5.73366,2849.17
5.81366,2985.64
5.89366,2836.11
5.97366,2925.71
6.05366,2986.62
6.13366,2804.92
6.21366,2936.84
6.29366,3009.59
6.37366,2881.84
6.45366,2936.58
6.53366,2705.25
6.61366,2907.22
6.69366,2810.19
6.77366,2740.19
6.85366,2699.64
6.93366,2677.05
7.01366,2933.41
7.09366,2720.29
7.17366,2909.58
7.25366,2986.1
7.33366,2680.5
7.41366,2765.45
7.49366,2712.84
7.57366,2841.71
7.65366,2740.84
7.73366,2819.9
7.81366,2761.37
7.89366,2710.53
7.97366,2758.1
8.05366,2748.73
8.13366,2755.61
8.21366,2808.03
8.29366,2885.31
8.37366,2831.35
8.45366,2735.19
8.53366,2715.05
8.61366,2706.1
8.69366,2633.38
8.77366,2686.25
8.85366,2663.85
8.93366,2659.01
9.01366,2760.47
9.09366,2766.44
9.17366,2628.71
9.25366,2721.02
9.33366,2647.59
9.41366,2709.91
9.49366,2836.3
9.57366,2742.03
9.65366,2783.2
9.73366,2637.27
9.81366,2673.81
9.89366,2733.22
9.97366,2751.14
10.05366,2688.81
10.13366,2667.5
10.21366,2553.25
10.29366,2798.09
10.37366,2780.66
10.45366,2648.34
10.53366,2623.04
10.61366,2679.8
10.69366,2613.53
10.77366,2658.75
10.85366,2736.98
10.93366,2713.05
11.01366,2765.23
11.09366,2777.61
11.17366,2708.78
11.25366,2772.62
11.33366,2743.8
11.41366,2666.2
11.49366,2799.59
11.57366,2742.57
11.65366,2604.82
11.73366,2734.54
11.81366,2549.93
11.89366,2710.51
11.97366,2669.73
12.05366,2585.7
12.13366,2630.16
12.21366,2672.91
12.29366,2839.04
12.37366,2757.48
12.45366,2551.87
12.53366,2667.09
12.61366,2638.86
12.69366,2688.22
12.77366,2665.12
12.85366,2661.42
12.93366,2575.42
13.01366,2625.56
13.09366,2710.44
13.17366,2692.31
13.25366,2701.05
13.33366,2796.59
13.41366,2773.26
13.49366,2747.4
13.57366,2740.65
13.65366,2807.34
13.73366,2788.43
13.81366,2630.05
13.89366,2643.16
13.97366,2704.27
14.05366,2644.4
14.13366,2788.01
14.21366,2459.82
14.29366,2755.04
14.37366,2779.9
14.45366,2696.29
14.53366,2706.68
14.61366,2594.18
14.69366,2741.01
14.77366,2580.8
14.85366,2649.64
14.93366,2625.87
15.01366,2542.5
15.09366,2560.36
15.17366,2597.42
15.25366,2633.23
15.33366,2712.83
15.41366,2673.48
15.49366,2646.61
15.57366,2632.97
15.65366,2630.63
15.73366,2697.02
15.81366,2604.09
15.89366,2642.54
15.97366,2672.31
16.05366,2613.82
16.13366,2488.43
16.21366,2670.84
16.29366,2612.24
16.37366,2744.28
16.45366,2742.62
16.53366,2728.27
16.61366,2774.46
16.69366,2695.67
16.77366,2683.03
16.85366,2605.37
16.93366,2731.13
17.01366,2709.87
17.09366,2608.5
17.17366,2534.37
17.25366,2602.89
17.33366,2717.25
17.41366,2670.13
17.49366,2459.55
17.57366,2738.11
17.65366,2755.62
17.73366,2659.76
17.81366,2668.88
17.89366,2519.24
17.97366,2625.95
18.05366,2626.67
18.13366,2594.31
18.21366,2652.15
18.29366,2874.02
18.37366,2751.89
18.45366,3111.37
18.53366,4336.11
18.61366,8915.84
18.69366,4980.33
18.77366,2872.76
18.85366,2779.43
18.93366,2527.85
19.01366,2641.82
19.09366,2471.75
19.17366,2552.99
19.25366,2659.31
19.33366,2659.92
19.41366,2712.82
19.49366,2706.95
19.57366,2514.45
19.65366,2487.93
19.73366,2637.3
19.81366,2662.86
19.89366,2426.55
19.97366,2583.23
20.05366,2620.11
20.13366,2625.57
20.21366,2721.55
20.29366,2611.83
20.37366,2706.46
20.45366,2562.3
20.53366,2662.74
20.61366,2574.51
20.69366,2520.56
20.77366,2792.4
20.85366,2571.03
20.93366,2676.06
21.01366,2682.98
21.09366,2730.91
21.17366,2786.63
21.25366,2741.67
21.33366,2803.2
21.41366,2752.66
21.49366,2727.38
21.57366,2756.35
21.65366,2816.11
21.73366,2654.65
21.81366,2636.15
21.89366,2747.85
21.97366,2633.91
22.05366,2595.36
22.13366,2651.1
22.21366,2699.81
22.29366,2550
22.37366,2540.3
22.45366,2600.24
22.53366,2775.89
22.61366,2676.37
22.69366,2534.31
22.77366,2693.84
22.85366,2742.47
22.93366,2846.632
23.01366,2688.35
23.09366,2636.65
23.17366,2695.67
23.25366,2702.83
23.33366,2962.19
23.41366,3077.42
23.49366,3279.63
23.57366,3476.75
23.65366,4584.56
23.73366,9745.98
23.81366,21941.2
23.89366,9062.28
23.97366,4261.71
24.05366,3437.12
24.13366,3057.52
24.21366,2980.46
24.29366,3072.62
24.37366,2772.64
24.45366,2845.51
24.53366,2747.3
24.61366,2722.81
24.69366,2684.42
24.77366,2754.39
24.85366,2711.78
24.93366,2625.94
25.01366,2691.37
25.09366,2618.16
25.17366,2675.74
25.25366,2673.63
25.33366,2680.67
25.41366,2763.92
25.49366,2645.31
25.57366,2629.27
25.65366,2670.19
25.73366,2740.19
25.81366,2523.94
25.89366,2578.99
25.97366,2726.13
26.05366,2664.79
26.13366,2558.14
26.21366,2787.05
26.29366,2577.96
26.37366,2634.65
26.45366,2679.03
26.53366,2616.32
26.61366,2470.08
26.69366,2599.46
26.77366,2568.8
26.85366,2624.44
26.93366,2584.05
27.01366,2548.89
27.09366,2668.77
27.17366,2645.75
27.25366,2455.68
27.33366,2599.51
27.41366,2516.29
27.49366,2735.65
27.57366,2640.13
27.65366,2516.3
27.73366,2548.15
27.81366,2589.67
27.89366,2587.91
27.97366,2718.57
28.05366,2659.09
28.13366,2650.14
28.21366,2698.96
28.29366,2561.05
28.37366,2608.66
28.45366,2744.97
28.53366,2698.87
28.61366,2698.71
28.69366,2732.61
28.77366,2669.39
28.85366,2676.65
28.93366,2567.73
29.01366,2711.65
29.09366,2552.22
29.17366,2638.93
29.25366,2595.27
29.33366,2533.76
29.41366,2538.53
29.49366,2623.47
29.57366,2623.46
29.65366,2749.75
29.73366,2667.86
29.81366,2576.88
29.89366,2600.85
29.97366,2552.57
30.05366,2628.75
30.13366,2577.6
30.21366,2868.61
30.29366,2798.45
30.37366,2663.62
30.45366,2759.74
30.53366,2801.53
30.61366,2734.13
30.69366,2868.88
30.77366,2811.1
30.85366,3103.95
30.93366,3621.62
31.01366,5515.77
31.09366,16224.9
31.17366,17031.4
31.25366,7053.29
31.33366,4465.33
31.41366,3853.78
31.49366,3126.61
31.57366,2900.11
31.65366,2865.95
31.73366,2859.26
31.81366,2773.58
31.89366,2715.15
31.97366,2753.61
32.05366,2675.29
32.13366,2675.02
32.21366,2673.36
32.29366,2698.05
32.37366,2774.27
32.45366,2715.63
32.53366,2758.8
32.61366,2667.95
32.69366,2533.97
32.77366,2672.49
32.85366,2592.14
32.93366,2685.42
33.01366,2754.47
33.09366,2726.58
33.17366,2757.94
33.25366,2832.16
33.33366,2840.04
33.41366,2646.26
33.49366,2615.57
33.57366,2493.34
33.65366,2695.41
33.73366,2489.52
33.81366,2532.52
33.89366,2613.21
33.97366,2626.39
34.05366,2679.14
34.13366,2675.39
34.21366,2664.07
34.29366,2541.84
34.37366,2771.88
34.45366,2829.21
34.53366,2743.87
34.61366,2696.85
34.69366,2733.32
34.77366,2728.47
34.85366,2778.5
34.93366,2767.58
35.01366,2827.85
35.09366,2903.06
35.17366,2927.13
35.25366,2914.28
35.33366,3002.34
35.41366,3140.93
35.49366,3319.46
35.57366,3646.12
35.65366,4400.13
35.73366,6580.02
35.81366,16037
35.89366,33307.5
35.97366,19287.2
36.05366,7998.17
36.13366,5409.23
36.21366,4776
36.29366,5669.06
36.37366,8106.29
36.45366,18284
36.53366,31842.3
36.61366,17492
36.69366,6581.76
36.77366,4476.58
36.85366,3742.53
36.93366,3406.55
37.01366,3414.68
37.09366,3089.51
37.17366,3114.87
37.25366,3116.41
37.33366,2974.97
37.41366,3127.06
37.49366,2891.25
37.57366,3056.9
37.65366,3683.11
37.73366,6606.34
37.81366,5822.8
37.89366,3601.86
37.97366,3169.05
38.05366,2989.64
38.13366,2869.52
38.21366,2799.02
38.29366,2649.6
38.37366,2632.45
38.45366,2792.07
38.53366,2629.61
38.61366,2652.41
38.69366,2724.08
38.77366,2723.09
38.85366,2798.1
38.93366,2717.79
39.01366,2653.97
39.09366,2606.94
39.17366,2651.06
39.25366,2564.81
39.33366,2694.67
39.41366,2527.71
39.49366,2814.26
39.57366,2672.65
39.65366,2528.98
39.73366,2554.14
39.81366,2602.53
39.89366,2565.71
39.97366,2716.66
40.05366,2498.17
40.13366,2510.1
40.21366,2707.88
40.29366,2667.49
40.37366,2672.77
40.45366,2545.21
40.53366,2652.09
40.61366,2607.03
40.69366,2590.87
40.77366,2585.53
40.85366,2516.51
40.93366,2640.02
41.01366,2607.62
41.09366,2460.5
41.17366,2464.86
41.25366,2739.41
41.33366,2557.02
41.41366,2531.22
41.49366,2654.75
41.57366,2662.89
41.65366,2542.31
41.73366,2660.46
41.81366,2593.86
41.89366,2675.73
41.97366,2503.31
42.05366,2511.39
42.13366,2515.06
42.21366,2721.1
42.29366,2646.09
42.37366,2707.06
42.45366,2588.25
42.53366,2694.54
42.61366,2778.35
42.69366,2639.86
42.77366,2746.88
42.85366,2702.46
42.93366,2746.39
43.01366,2693.04
43.09366,2571.26
43.17366,2691.67
43.25366,2742.21
43.33366,2639.91
43.41366,2513.48
43.49366,2661.8
43.57366,2762.32
43.65366,2779.25
43.73366,2756.84
43.81366,2843.91
43.89366,2796.3
43.97366,2875.21
44.05366,2932.47
44.13366,2901.14
44.21366,3068.46
44.29366,3249.22
44.37366,3943.73
44.45366,5033.18
44.53366,10420.4
44.61366,16600
44.69366,12205
44.77366,6087.77
44.85366,4397.79
44.93366,3706.57
45.01366,3353.8
45.09366,3248.63
45.17366,2894.2
45.25366,2899.83
45.33366,2882.18
45.41366,2787.76
45.49366,2759.22
45.57366,2693.73
45.65366,2636.56
45.73366,2820.25
45.81366,2588.59
45.89366,2791.55
45.97366,2737.73
46.05366,2513.53
46.13366,2600.68
46.21366,2734.32
46.29366,2687.58
46.37366,2827.8
46.45366,2693.8
46.53366,2714.46
46.61366,2656.87
46.69366,2659.05
46.77366,2676.1
46.85366,2730.41
46.93366,2724.17
47.01366,2655.63
47.09366,2483.18
47.17366,2445
47.25366,2658.73
47.33366,2593.32
47.41366,2562.78
47.49366,2612.48
47.57366,2606.34
47.65366,2565.72
47.73366,2662.23
47.81366,2661.27
47.89366,2599.94
47.97366,2697.27
48.05366,2468.2
48.13366,2562.75
48.21366,2618.11
48.29366,2683.48
48.37366,2767.95
48.45366,2737.23
48.53366,2776.42
48.61366,3075.13
48.69366,4364.27
48.77366,3988.86
48.85366,3492.47
48.93366,2879.61
49.01366,2830.44
49.09366,2678.89
49.17366,2748.44
49.25366,2718.1
49.33366,2626.9
49.41366,2657.97
49.49366,2906.1
49.57366,2985.18
49.65366,3808.98
49.73366,4120.92
49.81366,3685.08
49.89366,2868.42
49.97366,2709.28
50.05366,2761.75
50.13366,2692.1
50.21366,2644.41
50.29366,2710.76
50.37366,2810.81
50.45366,2625.24
50.53366,2686.45
50.61366,2663.78
50.69366,2674.53
50.77366,2656.98
50.85366,2656.71
50.93366,2838.51
51.01366,3043.98
51.09366,4372.68
51.17366,6524.98
51.25366,5149.3
51.33366,4013.5
51.41366,3255.86
51.49366,2814.62
51.57366,2854.93
51.65366,2643.98
51.73366,2647.48
51.81366,2739.81
51.89366,2605.5
51.97366,2760.67
52.05366,2607.9
52.13366,2619.46
52.21366,2764.72
52.29366,2698.29
52.37366,2796.63
52.45366,2623.73
52.53366,2634.27
52.61366,2906.11
52.69366,2910.14
52.77366,3051.64
52.85366,3197.99
52.93366,3970.35
53.01366,6891
53.09366,7596.56
53.17366,6191.02
53.25366,3935.88
53.33366,3065.01
53.41366,2931.3
53.49366,2788.88
53.57366,2679.92
53.65366,2773.08
53.73366,2757.33
53.81366,2801.4
53.89366,2635.91
53.97366,2535.32
54.05366,2568.24
54.13366,2639.91
54.21366,2727.86
54.29366,2532.75
54.37366,2625.64
54.45366,2668.53
54.53366,2647.71
54.61366,2663.35
54.69366,2742.83
54.77366,2526.21
54.85366,2741.87
54.93366,2612.19
55.01366,2582.44
55.09366,2592.74
55.17366,2485.65
55.25366,2613.78
55.33366,2711.17
55.41366,2416.05
55.49366,2581.05
55.57366,2614.58
55.65366,2598.86
55.73366,2626.64
55.81366,2490.86
55.89366,2496.15
55.97366,2582.89
56.05366,2503.21
56.13366,2577.02
56.21366,2536.57
56.29366,2669.44
56.37366,2489.88
56.45366,2519.93
56.53366,2597.08
56.61366,2645.2
56.69366,2690.75
56.77366,2584.96
56.85366,2617.83
56.93366,2678.56
57.01366,2586.35
57.09366,2629.41
57.17366,2657.75
57.25366,2647.51
57.33366,2635.74
57.41366,2528.76
57.49366,2709.54
57.57366,2671.61
57.65366,2744.6
57.73366,2839.27
57.81366,2808.66
57.89366,2996.46
57.97366,2999.58
58.05366,3470.77
58.13366,3371.52
58.21366,3626.88
58.29366,3778.96
58.37366,5080.31
58.45366,9643.46
58.53366,11646.6
58.61366,9262.4
58.69366,6027.13
58.77366,4212.17
58.85366,3554.93
58.93366,3324.18
59.01366,3079.45
59.09366,2987.22
59.17366,3002.98
59.25366,2935.39
59.33366,2892.42
59.41366,2873.96
59.49366,2928.68
59.57366,3150.95
59.65366,3339.92
59.73366,4229.88
59.81366,5927.94
59.89366,4954.32
59.97366,4297.66
60.05366,3265.33
60.13366,2874.73
60.21366,2732.15
60.29366,2823.47
60.37366,2748.97
60.45366,2616.64
60.53366,2624.93
60.61366,2860.05
60.69366,2768.14
60.77366,2717.7
60.85366,2738.17
60.93366,2593.53
61.01366,2712.48
61.09366,2544.37
61.17366,2758.35
61.25366,2631.92
61.33366,2746.01
61.41366,2605.53
61.49366,2647.54
61.57366,2482.56
61.65366,2576.8
61.73366,2652.8
61.81366,2560.81
61.89366,2615.33
61.97366,2668.62
62.05366,2658.11
62.13366,2642.69
62.21366,2721.19
62.29366,2594.77
62.37366,2630.5
62.45366,2698.06
62.53366,2579.11
62.61366,2655.73
62.69366,2672.67
62.77366,2722.13
62.85366,2472.91
62.93366,2583.75
63.01366,2635.56
63.09366,2563.34
63.17366,2648.36
63.25366,2623.37
63.33366,2555.43
63.41366,2613.8
63.49366,2733.18
63.57366,2614.5
63.65366,2747.75
63.73366,2660.83
63.81366,2671.22
63.89366,2624.24
63.97366,2756.13
64.05366,2545.85
64.13366,2653.06
64.21366,2779.14
64.29366,2731.09
64.37366,2593.24
64.45366,2783.19
64.53366,2854.33
64.61366,2716.62
64.69366,3119.67
64.77366,3768.73
64.85366,5711.29
64.93366,5777.96
65.01366,4980.73
65.09366,4135.93
65.17366,3336.31
65.25366,3028.3
65.33366,2866.06
65.41366,2765.26
65.49366,2675.27
65.57366,2725.74
65.65366,2738.3
65.73366,2873.55
65.81366,2667.35
65.89366,2587.68
65.97366,2643.83
66.05366,2596.43
66.13366,2773.63
66.21366,2691.49
66.29366,2570.92
66.37366,2581.89
66.45366,2560.97
66.53366,2613.31
66.61366,2701.56
66.69366,2652.12
66.77366,2697.01
66.85366,2809.489
66.93366,2901.36
67.01366,2793.12
67.09366,2986.17
67.17366,3282.13
67.25366,4365.94
67.33366,6398.66
67.41366,5364.47
67.49366,4956.95
67.57366,3830.92
67.65366,3218.83
67.73366,2866.48
67.81366,2940.23
67.89366,2889.17
67.97366,2818.2
68.05366,2944.04
68.13366,3180.42
68.21366,3130.18
68.29366,2960.03
68.37366,2773.5
68.45366,2798.78
68.53366,2635.75
68.61366,2595.01
68.69366,2643.32
68.77366,2582.01
68.85366,2498.26
68.93366,2568.25
69.01366,2530.91
69.09366,2473.37
69.17366,2586.51
69.25366,2619.26
69.33366,2570.79
69.41366,2690.69
69.49366,2510.13
69.57366,2584.4
69.65366,2522.03
69.73366,2529.36
69.81366,2524.52
69.89366,2576.07
69.97366,2657.03
70.05366,2836.35
70.13366,3184.96
70.21366,3178.33
70.29366,2959.23
70.37366,2819.83
70.45366,2691.31
70.53366,2638.51
70.61366,2645.46
70.69366,2614.84
70.77366,2616.14
70.85366,2643.31
70.93366,2576.53
71.01366,2584.62
71.09366,2638.27
71.17366,2591.89
71.25366,2669.94
71.33366,2800.48
71.41366,2854.87
71.49366,3026.59
71.57366,3248.98
71.65366,4385.72
71.73366,6381.35
71.81366,5289.39
71.89366,5029.11
71.97366,4051.99
72.05366,3240.96
72.13366,3015.95
72.21366,2892.37
72.29366,2761.73
72.37366,2705.03
72.45366,2608.05
72.53366,2576.33
72.61366,2677.11
72.69366,2603.58
72.77366,2661.59
72.85366,2753.42
72.93366,2721.6
73.01366,2674.89
73.09366,2838.39
73.17366,2945.68
73.25366,3296.62
73.33366,3649.55
73.41366,3420.86
73.49366,3448.75
73.57366,3290.2
73.65366,3904.77
73.73366,4320.26
73.81366,3818.32
73.89366,3836.04
73.97366,3165.54
74.05366,3028.04
74.13366,2704.7
74.21366,2632.39
74.29366,2746.79
74.37366,2645.84
74.45366,2620.93
74.53366,2558.33
74.61366,2611.23
74.69366,2569.23
74.77366,2615.97
74.85366,2560.95
74.93366,2651.64
75.01366,2534.38
75.09366,2533.69
75.17366,2616.03
75.25366,2576.16
75.33366,2709.77
75.41366,2610.63
75.49366,2756.52
75.57366,2638.74
75.65366,2717.48
75.73366,2817.28
75.81366,2770.96
75.89366,2829.23
75.97366,3267.07
76.05366,3722.14
76.13366,3339.26
76.21366,3567.57
76.29366,3761.26
76.37366,4323.91
76.45366,4844.7
76.53366,4523.6
76.61366,4762.66
76.69366,4884.82
76.77366,6665.98
76.85366,6487.94
76.93366,5776.07
77.01366,5364.19
77.09366,4154.43
77.17366,3468.43
77.25366,3446.92
77.33366,3335.34
77.41366,3254.55
77.49366,3701.49
77.57366,4424.81
77.65366,3812.22
77.73366,3645.99
77.81366,3378.01
77.89366,3055.62
77.97366,2851.02
78.05366,2704.14
78.13366,2661.6
78.21366,2612.38
78.29366,2704.21
78.37366,2678.47
78.45366,2616.45
78.53366,2500.36
78.61366,2886.58
78.69366,2750.29
78.77366,2745.67
78.85366,2589.57
78.93366,2880.32
79.01366,2605.33
79.09366,2649.86
79.17366,2747.01
79.25366,2606.58
79.33366,2669.8
79.41366,2497.75
79.49366,2614.01
79.57366,2631.53
79.65366,2615.35
79.73366,2652.71
79.81366,2668.3
79.89366,2673.79
79.97366,2758.12
80.05366,2724.62
80.13366,2637.8
80.21366,2691.09
80.29366,2798.92
80.37366,2712.07
80.45366,2823.88
80.53366,3023.89
80.61366,3134.59
80.69366,3122.49
80.77366,2994.84
80.85366,2950.95
80.93366,2778.31
81.01366,2734.52
81.09366,2781.23
81.17366,2624.38
81.25366,2730.81
81.33366,2601.83
81.41366,2642.64
81.49366,2578.06
81.57366,2586.45
81.65366,2647.28
81.73366,2734.86
81.81366,2634.94
81.89366,2628.2
81.97366,2647.42
82.05366,2634
82.13366,2656.86
82.21366,2676.62
82.29366,2611.06
82.37366,2668.68
82.45366,2609.96
82.53366,2719.03
82.61366,2471.38
82.69366,2534.99
82.77366,2604.068
82.85366,2630.29
82.93366,2593.39
83.01366,2585.99
83.09366,2681.6
83.17366,2667.26
83.25366,2624.12
83.33366,2576.97
83.41366,2566.05
83.49366,2529.74
83.57366,2544.04
83.65366,2640.76
83.73366,2660.22
83.81366,2512.09
83.89366,2601.56
83.97366,2613.67
84.05366,2716.4
84.13366,2610.23
84.21366,2543.15
84.29366,2567.9
84.37366,2664.04
84.45366,2558.92
84.53366,2562.79
84.61366,2667.1
84.69366,2739.71
84.77366,2543.2
84.85366,2584.9
84.93366,2609.17
85.01366,2695.52
85.09366,2702.72
85.17366,2493.99
85.25366,2571.66
85.33366,2546.67
85.41366,2602.38
85.49366,2830.08
85.57366,2566.33
85.65366,2698.02
85.73366,2840.53
85.81366,2891.95
85.89366,3180.93
85.97366,3023.79
86.05366,2980.43
86.13366,3033.77
86.21366,2917.38
86.29366,2645.52
86.37366,2638.03
86.45366,2728.68
86.53366,2716.37
86.61366,2684.13
86.69366,2709.25
86.77366,2759.89
86.85366,2788.65
86.93366,2965.14
87.01366,3291.54
87.09366,3336.53
87.17366,3083.77
87.25366,3078.99
87.33366,3001.28
87.41366,2756.46
87.49366,2738.86
87.57366,2689.03
87.65366,2746.36
87.73366,2756.36
87.81366,2611.72
87.89366,2684.44
87.97366,2654.64
88.05366,2729.29
88.13366,2750.51
88.21366,2737.98
88.29366,2721.39
88.37366,2910.27
88.45366,3273.9
88.53366,3807.66
88.61366,3698.57
88.69366,3373.58
88.77366,3389.19
88.85366,3342.43
88.93366,3248.68
89.01366,3019.54
89.09366,2803.44
89.17366,2910.86
89.25366,2865.4
89.33366,2935
89.41366,2945.42
89.49366,3066.03
89.57366,2986.9
89.65366,2992.02
89.73366,3125.09
89.81366,3152.87
89.89366,3312.34
89.97366,3779.6
90.05366,3983.61
90.13366,3531.29
90.21366,3452.24
90.29366,3436.83
90.37366,2883.91
90.45366,2819.22
90.53366,2734.49
90.61366,2518.36
90.69366,2684.01
90.77366,2695.3
90.85366,2646.9
90.93366,2534.78
91.01366,2554.96
91.09366,2654.21
91.17366,2533.3
91.25366,2627.86
91.33366,2744.02
91.41366,2493.86
91.49366,2689.19
91.57366,2643.97
91.65366,2660.34
91.73366,2665.91
91.81366,2666.15
91.89366,2697.13
91.97366,2688.79
92.05366,2741.27
92.13366,2672.05
92.21366,2772.11
92.29366,2621.8
92.37366,2675.75
92.45366,2789.94
92.53366,3093.51
92.61366,3220.72
92.69366,3281.38
92.77366,3449.34
92.85366,3729.74
92.93366,4619.63
93.01366,5546.69
93.09366,5254.91
93.17366,4458.73
93.25366,4970.98
93.33366,4219.31
93.41366,3571.39
93.49366,3104.39
93.57366,3034.65
93.65366,2923.61
93.73366,2827.56
93.81366,2807.29
93.89366,2735.32
93.97366,2740.81
94.05366,2679.28
94.13366,2541.94
94.21366,2637.57
94.29366,2601.04
94.37366,2562.08
94.45366,2583.34
94.53366,2622.33
94.61366,2690.58
94.69366,2565.8
94.77366,2641.5
94.85366,2620.41
94.93366,2682.11
95.01366,2647.54
95.09366,2855.76
95.17366,2723.33
95.25366,2681.84
95.33366,2645.9
95.41366,2502.6
95.49366,2688.09
95.57366,2566.1
95.65366,2656.57
95.73366,2555.96
95.81366,2583.2
95.89366,2548.89
95.97366,2636.02
96.05366,2641.86
96.13366,2630.4
96.21366,2751.33
96.29366,2701.13
96.37366,2598.95
96.45366,2595.69
96.53366,2655.56
96.61366,2678.19
96.69366,2609.29
96.77366,2845.26
96.85366,2719.15
96.93366,2845.6
97.01366,3347.59
97.09366,3585.73
97.17366,4202.46
97.25366,3824.55
97.33366,3797.08
97.41366,4359.5
97.49366,4641.26
97.57366,4436.59
97.65366,3806.51
97.73366,3669.62
97.81366,3511.35
97.89366,3226.2
97.97366,2827.57
98.05366,2725.3
98.13366,2706.89
98.21366,2683.95
98.29366,2618.78
98.37366,2543.78
98.45366,2671.03
98.53366,2971.96
98.61366,3516.4
98.69366,3923.04
98.77366,3667.88
98.85366,3217.98
98.93366,3411.29
99.01366,3150.59
99.09366,2964.61
99.17366,2721.38
99.25366,2523.83
99.33366,2638.9
99.41366,2663.21
99.49366,2556.68
99.57366,2591.58
99.65366,2642.33
99.73366,2653.42
99.79366,2695.87