File: data/xrd_icdd_PDF/00-055-0894 (PD3).csv
4.9,1304
4.97,1298
5.04,1324
5.11,1222
5.18,1226
5.25,1246
5.32,1227
5.39,1240
5.46,1242
5.53,1212
5.6,1185
5.67,1218
5.74,1224
5.81,1255
5.88,1194
5.95,1170
6.02,1166
6.09,1196
6.16,1126
6.23,1209
6.3,1157
6.37,1119
6.44,1121
6.51,1187
6.58,1128
6.65,1116
6.72,1124
6.79,1116
6.86,1136
6.93,1109
7,1172
7.07,1111
7.14,1064
7.21,1074
7.28,1073
7.35,1081
7.42,1120
7.49,1089
7.56,1085
7.63,1052
7.7,1127
7.77,1097
7.84,1101
7.91,1075
7.98,1090
8.05,1120
8.12,1012
8.19,1012
8.26,1075
8.33,1070
8.4,1062
8.47,1078
8.54,1093
8.61,1054
8.68,1071
8.75,1056
8.82,1079
8.89,1034
8.96,1045
9.03,1040
9.1,1024
9.17,1028
9.24,1056
9.31,1000
9.38,978
9.45,1101
9.52,1034
9.59,1008
9.66,988
9.73,989
9.8,972
9.87,979
9.94,992
10.01,977
10.08,970
10.15,956
10.22,994
10.29,957
10.36,1008
10.43,951
10.5,969
10.57,933
10.64,992
10.71,964
10.78,924
10.85,932
10.92,954
10.99,921
11.06,926
11.13,922
11.2,937
11.27,915
11.34,929
11.41,941
11.48,992
11.55,1098
11.62,1195
11.69,1630
11.76,2148
11.83,1317
11.9,984
11.97,1027
12.04,1184
12.11,972
12.18,984
12.25,912
12.32,892
12.39,951
12.46,878
12.53,913
12.6,920
12.67,939
12.74,933
12.81,886
12.88,862
12.95,871
13.02,897
13.09,877
13.16,870
13.23,887
13.3,895
13.37,919
13.44,871
13.51,885
13.58,879
13.65,909
13.72,894
13.79,902
13.86,820
13.93,907
14,891
14.07,861
14.14,841
14.21,879
14.28,905
14.35,902
14.42,845
14.49,844
14.56,874
14.63,877
14.7,841
14.77,856
14.84,876
14.91,922
14.98,880
15.05,893
15.12,847
15.19,814
15.26,854
15.33,865
15.4,891
15.47,873
15.54,925
15.61,1003
15.68,1296
15.75,1434
15.82,1034
15.89,908
15.96,880
16.03,858
16.1,896
16.17,866
16.24,844
16.31,841
16.38,842
16.45,871
16.52,808
16.59,812
16.66,915
16.73,838
16.8,885
16.87,824
16.94,887
17.01,860
17.08,839
17.15,897
17.22,875
17.29,875
17.36,847
17.43,913
17.5,951
17.57,924
17.64,873
17.71,918
17.78,887
17.85,913
17.92,904
17.99,912
18.06,925
18.13,880
18.2,917
18.27,914
18.34,946
18.41,853
18.48,914
18.55,898
18.62,1000
18.69,1249
18.76,1273
18.83,984
18.9,851
18.97,964
19.04,920
19.11,897
19.18,902
19.25,880
19.32,896
19.39,910
19.46,914
19.53,983
19.6,1095
19.67,1465
19.74,1970
19.81,3910
19.88,4252
19.95,1570
20.02,984
20.09,950
20.16,1109
20.23,1492
20.3,1777
20.37,1193
20.44,868
20.51,947
20.58,962
20.65,1060
20.72,1433
20.79,1468
20.86,1084
20.93,932
21,968
21.07,1418
21.14,2747
21.21,2386
21.28,1139
21.35,934
21.42,920
21.49,795
21.56,840
21.63,827
21.7,875
21.77,852
21.84,873
21.91,889
21.98,851
22.05,844
22.12,910
22.19,1342
22.26,3106
22.33,4786
22.4,2230
22.47,986
22.54,849
22.61,821
22.68,911
22.75,823
22.82,765
22.89,856
22.96,826
23.03,785
23.1,769
23.17,802
23.24,816
23.31,812
23.38,798
23.45,937
23.52,1395
23.59,3465
23.66,5564
23.73,2382
23.8,962
23.87,849
23.94,796
24.01,784
24.08,899
24.15,1132
24.22,1385
24.29,973
24.36,803
24.43,800
24.5,803
24.57,771
24.64,802
24.71,744
24.78,732
24.85,708
24.92,756
24.99,727
25.06,764
25.13,731
25.2,761
25.27,751
25.34,810
25.41,689
25.48,708
25.55,768
25.62,770
25.69,764
25.76,756
25.83,755
25.9,801
25.97,1094
26.04,3627
26.11,14069
26.18,18876
26.25,6257
26.32,2058
26.39,1692
26.46,3073
26.53,2504
26.6,1141
26.67,792
26.74,756
26.81,747
26.88,713
26.95,722
27.02,717
27.09,720
27.16,775
27.23,924
27.3,1263
27.37,1033
27.44,836
27.51,738
27.58,731
27.65,765
27.72,722
27.79,720
27.86,717
27.93,661
28,740
28.07,685
28.14,731
28.21,680
28.28,765
28.35,929
28.42,2646
28.49,9494
28.56,10664
28.63,3475
28.7,1138
28.77,773
28.84,815
28.91,1115
28.98,1935
29.05,1539
29.12,822
29.19,653
29.26,663
29.33,678
29.4,649
29.47,612
29.54,699
29.61,674
29.68,633
29.75,622
29.82,646
29.89,658
29.96,646
30.03,597
30.1,621
30.17,615
30.24,619
30.31,624
30.38,633
30.45,637
30.52,646
30.59,683
30.66,1267
30.73,4177
30.8,6150
30.87,2513
30.94,933
31.01,740
31.08,731
31.15,966
31.22,1689
31.29,1420
31.36,891
31.43,728
31.5,740
31.57,919
31.64,2431
31.71,10643
31.78,19075
31.85,7536
31.92,1690
31.99,1541
32.06,3617
32.13,3985
32.2,1663
32.27,786
32.34,708
32.41,613
32.48,657
32.55,614
32.62,607
32.69,621
32.76,610
32.83,638
32.9,732
32.97,1456
33.04,1813
33.11,997
33.18,641
33.25,552
33.32,582
33.39,577
33.46,577
33.53,555
33.6,581
33.67,649
33.74,602
33.81,612
33.88,720
33.95,1124
34.02,1126
34.09,723
34.16,588
34.23,557
34.3,566
34.37,593
34.44,652
34.51,1278
34.58,3345
34.65,2960
34.72,1240
34.79,727
34.86,578
34.93,568
35,567
35.07,598
35.14,790
35.21,722
35.28,570
35.35,535
35.42,590
35.49,635
35.56,1062
35.63,2134
35.7,1485
35.77,765
35.84,797
35.91,1419
35.98,1350
36.05,747
36.12,584
36.19,554
36.26,604
36.33,582
36.4,546
36.47,483
36.54,577
36.61,569
36.68,651
36.75,1049
36.82,1300
36.89,807
36.96,584
37.03,553
37.1,530
37.17,506
37.24,515
37.31,497
37.38,547
37.45,540
37.52,497
37.59,518
37.66,522
37.73,536
37.8,595
37.87,704
37.94,1524
38.01,1689
38.08,954
38.15,778
38.22,1344
38.29,1679
38.36,839
38.43,701
38.5,714
38.57,651
38.64,518
38.71,515
38.78,559
38.85,529
38.92,476
38.99,542
39.06,523
39.13,538
39.2,573
39.27,986
39.34,1248
39.41,893
39.48,624
39.55,562
39.62,507
39.69,529
39.76,533
39.83,528
39.9,836
39.97,1548
40.04,1504
40.11,1476
40.18,1095
40.25,918
40.32,1820
40.39,1397
40.46,707
40.53,534
40.6,532
40.67,479
40.74,502
40.81,516
40.88,511
40.95,485
41.02,482
41.09,499
41.16,655
41.23,835
41.3,700
41.37,553
41.44,666
41.51,734
41.58,624
41.65,1060
41.72,1284
41.79,798
41.86,521
41.93,522
42,465
42.07,493
42.14,515
42.21,761
42.28,1124
42.35,1613
42.42,1496
42.49,763
42.56,607
42.63,890
42.7,1109
42.77,754
42.84,546
42.91,506
42.98,492
43.05,534
43.12,503
43.19,505
43.26,488
43.33,475
43.4,436
43.47,516
43.54,488
43.61,674
43.68,946
43.75,766
43.82,553
43.89,440
43.96,461
44.03,456
44.1,500
44.17,466
44.24,707
44.31,1126
44.38,1152
44.45,698
44.52,516
44.59,482
44.66,483
44.73,569
44.8,783
44.87,873
44.94,628
45.01,646
45.08,874
45.15,1398
45.22,1074
45.29,822
45.36,989
45.43,774
45.5,672
45.57,754
45.64,689
45.71,1221
45.78,2716
45.85,1893
45.92,792
45.99,540
46.06,496
46.13,553
46.2,532
46.27,534
46.34,599
46.41,1095
46.48,1572
46.55,1072
46.62,794
46.69,1205
46.76,1121
46.83,680
46.9,522
46.97,481
47.04,456
47.11,482
47.18,512
47.25,642
47.32,1043
47.39,835
47.46,598
47.53,492
47.6,464
47.67,477
47.74,466
47.81,473
47.88,512
47.95,756
48.02,1171
48.09,935
48.16,702
48.23,1126
48.3,2144
48.37,1869
48.44,1359
48.51,1418
48.58,1004
48.65,647
48.72,537
48.79,470
48.86,482
48.93,485
49,475
49.07,476
49.14,477
49.21,506
49.28,584
49.35,925
49.42,1097
49.49,805
49.56,821
49.63,765
49.7,546
49.77,529
49.84,462
49.91,462
49.98,510
50.05,601
50.12,891
50.19,771
50.26,548
50.33,534
50.4,693
50.47,751
50.54,564
50.61,494
50.68,508
50.75,504
50.82,520
50.89,484
50.96,484
51.03,448
51.1,556
51.17,873
51.24,1137
51.31,963
51.38,646
51.45,549
51.52,526
51.59,480
51.66,483
51.73,457
51.8,445
51.87,466
51.94,457
52.01,444
52.08,471
52.15,495
52.22,573
52.29,965
52.36,1399
52.43,931
52.5,607
52.57,646
52.64,764
52.71,596
52.78,493
52.85,523
52.92,654
52.99,711
53.06,647
53.13,695
53.2,1732
53.27,3501
53.34,2656
53.41,1519
53.48,1145
53.55,768
53.62,616
53.69,787
53.76,1399
53.83,1344
53.9,844
53.97,594
54.04,477
54.11,490
54.18,508
54.25,462
54.32,473
54.39,497
54.46,692
54.53,1224
54.6,2539
54.67,2658
54.74,2568
54.81,1751
54.88,1293
54.95,1215
55.02,1224
55.09,878
55.16,566
55.23,490
55.3,521
55.37,485
55.44,473
55.51,769
55.58,960
55.65,658
55.72,520
55.79,496
55.86,605
55.93,1238
56,1465
56.07,883
56.14,579
56.21,495
56.28,518
56.35,747
56.42,983
56.49,774
56.56,593
56.63,539
56.7,533
56.77,476
56.84,454
56.91,424
56.98,407
57.05,409
57.12,465
57.19,419
57.26,465
57.33,452
57.4,425
57.47,437
57.54,402
57.61,420
57.68,435
57.75,425
57.82,390
57.89,428
57.96,464
58.03,458
58.1,438
58.17,507
58.24,664
58.31,811
58.38,918
58.45,1048
58.52,785
58.59,574
58.66,826
58.73,1412
58.8,1071
58.87,679
58.94,567
59.01,646
59.08,1074
59.15,1396
59.22,1031
59.29,760
59.36,774
59.43,639
59.5,494
59.57,467
59.64,420
59.71,444
59.78,500
59.85,684
59.92,716
59.99,624
60.06,890
60.13,872
60.2,608
60.27,419
60.34,458
60.41,415
60.48,401
60.55,412
60.62,377
60.69,443
60.76,519
60.83,703
60.9,636
60.97,466
61.04,469
61.11,538
61.18,554
61.25,450
61.32,413
61.39,454
61.46,397
61.53,427
61.6,494
61.67,588
61.74,557
61.81,581
61.88,660
61.95,546
62.02,457
62.09,394
62.16,419
62.23,465
62.3,576
62.37,451
62.44,394
62.51,419
62.58,401
62.65,470
62.72,690
62.79,902
62.86,711
62.93,499
63,458
63.07,395
63.14,409
63.21,468
63.28,497
63.35,423
63.42,455
63.49,476
63.56,531
63.63,505
63.7,612
63.77,1195
63.84,1384
63.91,985
63.98,633
64.05,549
64.12,675
64.19,659
64.26,552
64.33,477
64.4,414
64.47,374
64.54,410
64.61,380
64.68,429
64.75,423
64.82,393
64.89,379
64.96,395
65.03,390
65.1,422
65.17,408
65.24,422
65.31,419
65.38,440
65.45,515
65.52,565
65.59,469
65.66,464
65.73,463
65.8,486
65.87,464
65.94,453
66.01,413
66.08,420
66.15,486
66.22,609
66.29,1304
66.36,2416
66.43,1978
66.5,1170
66.57,695
66.64,554
66.71,400
66.78,444
66.85,454
66.92,472
66.99,420
67.06,477
67.13,526
67.2,591
67.27,623
67.34,616
67.41,514
67.48,549
67.55,456
67.62,443
67.69,555
67.76,621
67.83,587
67.9,460
67.97,441
68.04,425
68.11,421
68.18,386
68.25,394
68.32,383
68.39,467
68.46,579
68.53,854
68.6,912
68.67,770
68.74,690
68.81,555
68.88,593
68.95,738
69.02,603
69.09,474
69.16,480
69.23,484
69.3,570
69.37,915
69.44,1428
69.51,1098
69.58,650
69.65,457
69.72,426
69.79,390
69.86,398
69.93,385
70,371
70.07,382
70.14,415
70.21,449
70.28,419
70.35,419
70.42,457
70.49,528
70.56,509
70.63,490
70.7,385
70.77,428
70.84,452
70.91,525
70.98,554
71.05,467
71.12,440
71.19,391
71.26,381
71.33,451
71.4,510
71.47,809
71.54,932
71.61,691
71.68,533
71.75,538
71.82,729
71.89,746
71.96,540
72.03,487
72.1,575
72.17,683
72.24,657
72.31,518
72.38,473
72.45,411
72.52,416
72.59,413
72.66,452
72.73,473
72.8,488
72.87,412
72.94,422
73.01,430
73.08,465
73.15,461
73.22,445
73.29,552
73.36,585
73.43,612
73.5,557
73.57,511
73.64,522
73.71,479
73.78,614
73.85,871
73.92,876
73.99,631
74.06,531
74.13,512
74.2,447
74.27,581
74.34,730
74.41,631
74.48,538
74.55,495
74.62,518
74.69,479
74.76,416
74.83,410
74.9,420
74.97,429
75.04,425
75.11,545
75.18,561
75.25,518
75.32,477
75.39,504
75.46,549
75.53,625
75.6,891
75.67,843
75.74,648
75.81,466
75.88,453
75.95,435
76.02,471
76.09,544
76.16,575
76.23,520
76.3,463
76.37,399
76.44,405
76.51,356
76.58,381
76.65,360
76.72,398
76.79,384
76.86,425
76.93,493
77,476
77.07,516
77.14,473
77.21,412
77.28,409
77.35,427
77.42,415
77.49,414
77.56,401
77.63,386
77.7,389
77.77,412
77.84,469
77.91,571
77.98,688
78.05,707
78.12,622
78.19,548
78.26,628
78.33,633
78.4,583
78.47,500
78.54,552
78.61,587
78.68,467
78.75,455
78.82,437
78.89,456
78.96,483
79.03,464
79.1,454
79.17,483
79.24,456
79.31,436
79.38,406
79.45,380
79.52,394
79.59,371
79.66,358
79.73,360
79.8,357
79.87,400
79.94,416
80.01,569
80.08,622
80.15,592
80.22,456
80.29,460
80.36,429
80.43,461
80.5,397
80.57,387
80.64,398
80.71,425
80.78,401
80.85,449
80.92,572
80.99,608
81.06,615
81.13,599
81.2,511
81.27,471
81.34,403
81.41,383
81.48,407
81.55,440
81.62,440
81.69,397
81.76,436
81.83,430
81.9,432
81.97,410
82.04,392
82.11,398
82.18,411
82.25,441
82.32,354
82.39,376
82.46,428
82.53,437
82.6,445
82.67,389
82.74,390
82.81,459
82.88,479
82.95,437
83.02,400
83.09,411
83.16,420
83.23,473
83.3,592
83.37,656
83.44,511
83.51,450
83.58,410
83.65,403
83.72,391
83.79,376
83.86,378
83.93,426
84,502
84.07,464
84.14,483
84.21,511
84.28,497
84.35,442
84.42,448
84.49,395
84.56,394
84.63,340
84.7,344
84.77,358
84.84,392
84.91,401
84.98,423
85.05,402
85.12,414
85.19,389
85.26,376
85.33,392
85.4,372
85.47,367
85.54,361
85.61,392
85.68,368
85.75,389
85.82,370
85.89,448
85.96,573
86.03,569
86.1,479
86.17,493
86.24,544
86.31,701
86.38,712
86.45,584
86.52,512
86.59,554
86.66,529
86.73,500
86.8,432
86.87,449
86.94,642
87.01,892
87.08,847
87.15,704
87.22,537
87.29,428
87.36,422
87.43,427
87.5,488
87.57,542
87.64,497
87.71,444
87.78,429
87.85,372
87.92,415
87.99,403
88.06,445
88.13,456
88.2,420
88.27,386
88.34,377
88.41,432
88.48,485
88.55,528
88.62,517
88.69,578
88.76,459
88.83,431
88.9,458
88.97,523
89.04,458
89.11,392
89.18,359
89.25,397
89.32,394
89.39,382
89.46,480
89.53,515
89.6,536
89.67,518
89.74,422
89.81,386
89.88,430
89.95,539
90.02,705
90.09,733
90.16,660
90.23,499
90.3,514
90.37,585
90.44,632
90.51,563
90.58,458
90.65,435
90.72,431
90.79,410
90.86,405
90.93,470
91,468
91.07,572
91.14,693
91.21,529
91.28,472
91.35,437
91.42,411
91.49,399
91.56,434
91.63,465
91.7,486
91.77,440
91.84,405
91.91,385
91.98,379
92.05,386
92.12,400
92.19,524
92.26,593
92.33,515
92.4,413
92.47,367
92.54,359
92.61,382
92.68,363
92.75,356
92.82,362
92.89,384
92.96,372
93.03,372
93.1,349
93.17,347
93.24,380
93.31,353
93.38,396
93.45,344
93.52,439
93.59,425
93.66,427
93.73,396
93.8,437
93.87,385
93.94,435
94.01,362
94.08,359
94.15,410
94.22,443
94.29,497
94.36,508
94.43,446
94.5,478
94.57,457
94.64,400
94.71,367
94.78,370
94.85,438
94.92,439
94.99,482
95.06,488
95.13,467
95.2,452
95.27,514
95.34,546
95.41,438
95.48,438
95.55,376
95.62,391
95.69,436
95.76,473
95.83,444
95.9,417
95.97,349
96.04,354
96.11,370
96.18,333
96.25,337
96.32,353
96.39,329
96.46,338
96.53,329
96.6,318
96.67,330
96.74,347
96.81,362
96.88,347
96.95,340
97.02,342
97.09,348
97.16,375
97.23,385
97.3,319
97.37,365
97.44,324
97.51,351
97.58,335
97.65,356
97.72,375
97.79,372
97.86,359
97.93,378
98,411
98.07,391
98.14,429
98.21,396
98.28,372
98.35,381
98.42,388
98.49,410
98.56,375
98.63,369
98.7,334
98.77,336
98.84,345
98.91,362
98.98,346
99.05,329
99.12,368
99.19,370
99.26,373
99.33,431
99.4,476
99.47,436
99.54,398
99.61,378
99.68,364
99.75,394
99.82,370
99.89,348
99.96,332
100.03,319
100.1,0