File: data/xrd_icdd_PDF/00-058-0386 (PD3).csv
5,1124
5.08,1122
5.16,1102
5.24,1039
5.32,996
5.4,1007
5.48,981
5.56,986
5.64,964
5.72,914
5.8,974
5.88,1039
5.96,939
6.04,861
6.12,821
6.2,781
6.28,951
6.36,889
6.44,843
6.52,808
6.6,763
6.68,763
6.76,786
6.84,723
6.92,808
7,768
7.08,773
7.16,730
7.24,710
7.32,756
7.4,713
7.48,753
7.56,705
7.64,713
7.72,685
7.8,640
7.88,700
7.96,590
8.04,648
8.12,648
8.2,630
8.28,658
8.36,605
8.44,622
8.52,605
8.6,582
8.68,655
8.76,570
8.84,620
8.92,580
9,525
9.08,552
9.16,520
9.24,570
9.32,457
9.4,520
9.48,494
9.56,469
9.64,535
9.72,484
9.8,517
9.88,487
9.96,502
10.04,575
10.12,482
10.2,489
10.28,467
10.36,464
10.44,489
10.52,452
10.6,477
10.68,505
10.76,494
10.84,482
10.92,505
11,414
11.08,417
11.16,399
11.24,464
11.32,414
11.4,472
11.48,467
11.56,447
11.64,432
11.72,484
11.8,472
11.88,412
11.96,447
12.04,407
12.12,444
12.2,351
12.28,409
12.36,387
12.44,389
12.52,387
12.6,399
12.68,351
12.76,371
12.84,392
12.92,361
13,356
13.08,366
13.16,404
13.24,397
13.32,354
13.4,364
13.48,351
13.56,359
13.64,359
13.72,321
13.8,344
13.88,334
13.96,361
14.04,351
14.12,366
14.2,344
14.28,334
14.36,341
14.44,346
14.52,351
14.6,382
14.68,316
14.76,316
14.84,341
14.92,349
15,392
15.08,359
15.16,336
15.24,351
15.32,301
15.4,309
15.48,311
15.56,304
15.64,334
15.72,256
15.8,309
15.88,291
15.96,276
16.04,254
16.12,289
16.2,269
16.28,281
16.36,274
16.44,309
16.52,301
16.6,286
16.68,274
16.76,316
16.84,354
16.92,294
17,271
17.08,264
17.16,329
17.24,304
17.32,349
17.4,361
17.48,299
17.56,409
17.64,356
17.72,374
17.8,434
17.88,520
17.96,675
18.04,1235
18.12,2477
18.2,2789
18.28,1127
18.36,434
18.44,311
18.52,274
18.6,319
18.68,254
18.76,246
18.84,261
18.92,276
19,266
19.08,269
19.16,254
19.24,279
19.32,261
19.4,246
19.48,264
19.56,246
19.64,294
19.72,271
19.8,246
19.88,218
19.96,218
20.04,218
20.12,216
20.2,231
20.28,213
20.36,223
20.44,246
20.52,208
20.6,201
20.68,261
20.76,196
20.84,238
20.92,261
21,238
21.08,206
21.16,218
21.24,241
21.32,243
21.4,171
21.48,231
21.56,196
21.64,216
21.72,196
21.8,236
21.88,246
21.96,191
22.04,236
22.12,254
22.2,186
22.28,271
22.36,269
22.44,267
22.52,262
22.6,289
22.68,365
22.76,498
22.84,743
22.92,1037
23,2113
23.08,3773
23.16,3845
23.24,1476
23.32,469
23.4,366
23.48,266
23.56,311
23.64,251
23.72,238
23.8,231
23.88,221
23.96,238
24.04,171
24.12,163
24.2,203
24.28,201
24.36,163
24.44,203
24.52,198
24.6,181
24.68,211
24.76,198
24.84,223
24.92,191
25,246
25.08,173
25.16,218
25.24,203
25.32,198
25.4,223
25.48,196
25.56,228
25.64,173
25.72,178
25.8,196
25.88,208
25.96,181
26.04,183
26.12,183
26.2,176
26.28,177
26.36,202
26.44,174
26.52,178
26.6,196
26.68,178
26.76,186
26.84,193
26.92,163
27,178
27.08,201
27.16,178
27.24,188
27.32,171
27.4,208
27.48,193
27.56,213
27.64,198
27.72,193
27.8,176
27.88,183
27.96,183
28.04,183
28.12,188
28.2,181
28.28,161
28.36,181
28.44,179
28.52,166
28.6,168
28.68,161
28.76,183
28.84,153
28.92,178
29,201
29.08,223
29.16,256
29.24,217
29.32,240
29.4,265
29.48,264
29.56,259
29.64,251
29.72,281
29.8,354
29.88,640
29.96,1044
30.04,2487
30.12,5547
30.2,7507
30.28,5176
30.36,1699
30.44,743
30.52,575
30.6,510
30.68,402
30.76,315
30.84,289
30.92,249
31,224
31.08,208
31.16,211
31.24,211
31.32,193
31.4,236
31.48,254
31.56,221
31.64,188
31.72,228
31.8,208
31.88,193
31.96,163
32.04,221
32.12,196
32.2,191
32.28,153
32.36,153
32.44,183
32.52,198
32.6,193
32.68,183
32.76,194
32.84,176
32.92,176
33,188
33.08,186
33.16,176
33.24,194
33.32,179
33.4,174
33.48,180
33.56,178
33.64,183
33.72,233
33.8,237
33.88,251
33.96,286
34.04,312
34.12,351
34.2,379
34.28,505
34.36,530
34.44,597
34.52,823
34.6,1443
34.68,2390
34.76,4874
34.84,10911
34.92,14904
35,10449
35.08,4217
35.16,2322
35.24,2219
35.32,3594
35.4,6300
35.48,7854
35.56,4940
35.64,2136
35.72,949
35.8,663
35.88,605
35.96,474
36.04,444
36.12,326
36.2,261
36.28,296
36.36,289
36.44,279
36.52,349
36.6,479
36.68,753
36.76,1503
36.84,1458
36.92,944
37,427
37.08,274
37.16,236
37.24,183
37.32,163
37.4,113
37.48,203
37.56,163
37.64,176
37.72,186
37.8,146
37.88,146
37.96,148
38.04,146
38.12,171
38.2,166
38.28,105
38.36,166
38.44,146
38.52,126
38.6,123
38.68,198
38.76,176
38.84,166
38.92,146
39,141
39.08,196
39.16,143
39.24,158
39.32,146
39.4,191
39.48,136
39.56,161
39.64,151
39.72,159
39.8,144
39.88,145
39.96,142
40.04,144
40.12,151
40.2,156
40.28,146
40.36,163
40.44,168
40.52,123
40.6,143
40.68,146
40.76,176
40.84,98
40.92,115
41,168
41.08,108
41.16,113
41.24,131
41.32,131
41.4,138
41.48,143
41.56,143
41.64,143
41.72,148
41.8,148
41.88,146
41.96,166
42.04,136
42.12,148
42.2,206
42.28,206
42.36,146
42.44,191
42.52,193
42.6,233
42.68,236
42.76,284
42.84,331
42.92,505
43,989
43.08,2156
43.16,4982
43.24,5745
43.32,4232
43.4,2118
43.48,929
43.56,663
43.64,337
43.72,365
43.8,294
43.88,275
43.96,279
44.04,254
44.12,216
44.2,221
44.28,201
44.36,191
44.44,184
44.52,173
44.6,151
44.68,141
44.76,143
44.84,178
44.92,118
45,126
45.08,158
45.16,131
45.24,143
45.32,115
45.4,95
45.48,141
45.56,136
45.64,133
45.72,146
45.8,156
45.88,120
45.96,133
46.04,166
46.12,143
46.2,141
46.28,161
46.36,123
46.44,133
46.52,126
46.6,133
46.68,153
46.76,148
46.84,143
46.92,166
47,208
47.08,389
47.16,643
47.24,951
47.32,786
47.4,542
47.48,349
47.56,218
47.64,148
47.72,188
47.8,128
47.88,196
47.96,191
48.04,281
48.12,427
48.2,853
48.28,1423
48.36,1328
48.44,934
48.52,522
48.6,276
48.68,241
48.76,173
48.84,208
48.92,166
49,148
49.08,153
49.16,211
49.24,254
49.32,248
49.4,474
49.48,916
49.56,1491
49.64,1403
49.72,939
49.8,487
49.88,314
49.96,311
50.04,289
50.12,236
50.2,266
50.28,304
50.36,269
50.44,294
50.52,198
50.6,213
50.68,168
50.76,213
50.84,213
50.92,203
51,201
51.08,208
51.16,296
51.24,354
51.32,492
51.4,638
51.48,1230
51.56,2568
51.64,3311
51.72,2477
51.8,1687
51.88,740
51.96,442
52.04,382
52.12,289
52.2,277
52.28,264
52.36,229
52.44,196
52.52,221
52.6,198
52.68,203
52.76,178
52.84,161
52.92,141
53,158
53.08,178
53.16,143
53.24,161
53.32,158
53.4,105
53.48,186
53.56,176
53.64,196
53.72,236
53.8,243
53.88,211
53.96,236
54.04,231
54.12,226
54.2,259
54.28,231
54.36,186
54.44,151
54.52,171
54.6,156
54.68,133
54.76,161
54.84,133
54.92,126
55,131
55.08,156
55.16,168
55.24,213
55.32,171
55.4,201
55.48,238
55.56,198
55.64,334
55.72,261
55.8,269
55.88,301
55.96,254
56.04,254
56.12,334
56.2,394
56.28,537
56.36,673
56.44,1247
56.52,1923
56.6,3662
56.68,6629
56.76,5961
56.84,4330
56.92,2774
57,1162
57.08,723
57.16,630
57.24,555
57.32,537
57.4,346
57.48,329
57.56,289
57.64,269
57.72,281
57.8,279
57.88,487
57.96,708
58.04,1009
58.12,811
58.2,572
58.28,399
58.36,266
58.44,266
58.52,246
58.6,193
58.68,158
58.76,120
58.84,128
58.92,120
59,163
59.08,168
59.16,163
59.24,188
59.32,151
59.4,158
59.48,105
59.56,110
59.64,126
59.72,136
59.8,120
59.88,126
59.96,153
60.04,118
60.12,143
60.2,136
60.28,131
60.36,141
60.44,118
60.52,146
60.6,108
60.68,158
60.76,233
60.84,271
60.92,248
61,243
61.08,243
61.16,231
61.24,203
61.32,168
61.4,183
61.48,141
61.56,120
61.64,151
61.72,123
61.8,108
61.88,158
61.96,151
62.04,163
62.12,218
62.2,183
62.28,198
62.36,223
62.44,331
62.52,449
62.6,615
62.68,1370
62.76,1905
62.84,1780
62.92,1323
63,969
63.08,484
63.16,369
63.24,294
63.32,211
63.4,223
63.48,246
63.56,223
63.64,243
63.72,233
63.8,236
63.88,163
63.96,241
64.04,241
64.12,208
64.2,243
64.28,216
64.36,241
64.44,221
64.52,188
64.6,188
64.68,231
64.76,188
64.84,213
64.92,241
65,289
65.08,379
65.16,525
65.24,904
65.32,2056
65.4,2861
65.48,2538
65.56,2003
65.64,1478
65.72,766
65.8,494
65.88,424
65.96,429
66.04,489
66.12,361
66.2,301
66.28,266
66.36,231
66.44,221
66.52,171
66.6,176
66.68,158
66.76,173
66.84,151
66.92,171
67,163
67.08,138
67.16,178
67.24,163
67.32,223
67.4,151
67.48,176
67.56,228
67.64,193
67.72,306
67.8,374
67.88,346
67.96,269
68.04,284
68.12,188
68.2,171
68.28,168
68.36,163
68.44,223
68.52,191
68.6,196
68.68,218
68.76,221
68.84,203
68.92,223
69,254
69.08,218
69.16,276
69.24,397
69.32,577
69.4,999
69.48,1782
69.56,2041
69.64,1458
69.72,1227
69.8,851
69.88,454
69.96,271
70.04,246
70.12,256
70.2,211
70.28,271
70.36,241
70.44,281
70.52,251
70.6,339
70.68,344
70.76,344
70.84,394
70.92,397
71,560
71.08,901
71.16,1396
71.24,1549
71.32,1087
71.4,1029
71.48,728
71.56,467
71.64,356
71.72,243
71.8,248
71.88,241
71.96,168
72.04,254
72.12,261
72.2,226
72.28,238
72.36,271
72.44,208
72.52,243
72.6,223
72.68,188
72.76,231
72.84,228
72.92,183
73,161
73.08,243
73.16,233
73.24,314
73.32,306
73.4,351
73.48,479
73.56,640
73.64,1130
73.72,1493
73.8,1870
73.88,2048
73.96,1770
74.04,1885
74.12,2221
74.2,1920
74.28,1436
74.36,1195
74.44,1127
74.52,660
74.6,507
74.68,371
74.76,346
74.84,402
74.92,479
75,597
75.08,547
75.16,432
75.24,429
75.32,344
75.4,269
75.48,163
75.56,178
75.64,143
75.72,171
75.8,131
75.88,158
75.96,163
76.04,138
76.12,138
76.2,146
76.28,178
76.36,138
76.44,166
76.52,126
76.6,138
76.68,158
76.76,115
76.84,118
76.92,153
77,103
77.08,120
77.16,133
77.24,118
77.32,131
77.4,163
77.48,163
77.56,158
77.64,143
77.72,201
77.8,256
77.88,316
77.96,284
78.04,289
78.12,329
78.2,454
78.28,542
78.36,472
78.44,384
78.52,274
78.6,286
78.68,218
78.76,186
78.84,173
78.92,178
79,141
79.08,123
79.16,153
79.24,115
79.32,191
79.4,113
79.48,138
79.56,126
79.64,126
79.72,123
79.8,136
79.88,151
79.96,103
80.04,148
80.12,105
80.2,136
80.28,103
80.36,118
80.44,131
80.52,115
80.6,115
80.68,118
80.76,158
80.84,126
80.92,113
81,126
81.08,118
81.16,128
81.24,141
81.32,146
81.4,95
81.48,126
81.56,115
81.64,148
81.72,151
81.8,166
81.88,126
81.96,113
82.04,138
82.12,113
82.2,123
82.28,161
82.36,131
82.44,156
82.52,148
82.6,163
82.68,206
82.76,294
82.84,434
82.92,505
83,520
83.08,331
83.16,417
83.24,366
83.32,226
83.4,158
83.48,201
83.56,188
83.64,231
83.72,228
83.8,306
83.88,274
83.96,284
84.04,286
84.12,326
84.2,266
84.28,196
84.36,206
84.44,158
84.52,158
84.6,151
84.68,186
84.76,181
84.84,193
84.92,151
85,156
85.08,201
85.16,193
85.24,233
85.32,319
85.4,580
85.48,720
85.56,469
85.64,499
85.72,469
85.8,437
85.88,329
85.96,427
86.04,462
86.12,487
86.2,389
86.28,377
86.36,389
86.44,304
86.52,276
86.6,218
86.68,226
86.76,259
86.84,226
86.92,334
87,369
87.08,434
87.16,334
87.24,316
87.32,296
87.4,269
87.48,203
87.56,213
87.64,176
87.72,166
87.8,176
87.88,191
87.96,173
88.04,188
88.12,156
88.2,178
88.28,168
88.36,203
88.44,176
88.52,178
88.6,193
88.68,193
88.76,188
88.84,251
88.92,221
89,248
89.08,251
89.16,326
89.24,369
89.32,615
89.4,969
89.48,1107
89.56,1493
89.64,1473
89.72,1323
89.8,1089
89.88,1032
89.96,771
90.04,489
90.12,419
90.2,281
90.28,269
90.36,238
90.44,203
90.52,153
90.6,203
90.68,188
90.76,221
90.84,173
90.92,173
91,136
91.08,153
91.16,158
91.24,156
91.32,176
91.4,148
91.48,148
91.56,136
91.64,186
91.72,173
91.8,115
91.88,186
91.96,178
92.04,158
92.12,168
92.2,143
92.28,131
92.36,151
92.44,178
92.52,188
92.6,158
92.68,176
92.76,161
92.84,138
92.92,166
93,188
93.08,166
93.16,183
93.24,188
93.32,226
93.4,171
93.48,256
93.56,261
93.64,336
93.72,407
93.8,778
93.88,911
93.96,894
94.04,668
94.12,798
94.2,969
94.28,1042
94.36,896
94.44,853
94.52,715
94.6,678
94.68,828
94.76,750
94.84,808
94.92,633
95,562
95.08,592
95.16,525
95.24,379
95.32,326
95.4,266
95.48,281
95.56,254
95.64,223
95.72,231
95.8,221
95.88,228
95.96,191
96.04,206
96.12,176
96.2,226
96.28,211
96.36,231
96.44,269
96.52,233
96.6,259
96.68,256
96.76,311
96.84,329
96.92,427
97,708
97.08,1145
97.16,1601
97.24,1815
97.32,1423
97.4,1140
97.48,1210
97.56,1087
97.64,884
97.72,612
97.8,414
97.88,354
97.96,316
98.04,311
98.12,299
98.2,236
98.28,203
98.36,178
98.44,176
98.52,203
98.6,218
98.68,206
98.76,176
98.84,196
98.92,203
99,201
99.08,193
99.16,211
99.24,221
99.32,286
99.4,294
99.48,339
99.56,331
99.64,279
99.72,243
99.8,276
99.88,304
99.96,259
100.04,211
100.12,181
100.2,183
100.28,178
100.36,196
100.44,183
100.52,213
100.6,198
100.68,216
100.76,236
100.84,326
100.92,545
101,821
101.08,946
101.16,753
101.24,565
101.32,550
101.4,650
101.48,562
101.56,387
101.64,344
101.72,218
101.8,196
101.88,218
101.96,203
102.04,223
102.12,178
102.2,238
102.28,251
102.36,221
102.44,296
102.52,339
102.6,432
102.68,444
102.76,429
102.84,444
102.92,366
103,364
103.08,361
103.16,281
103.24,236
103.32,243
103.4,279
103.48,233
103.56,256
103.64,228
103.72,241
103.8,256
103.88,236
103.96,156
104.04,188
104.12,203
104.2,203
104.28,163
104.36,208
104.44,221
104.52,188
104.6,256
104.68,243
104.76,238
104.84,259
104.92,276
105,346
105.08,454
105.16,587
105.24,971
105.32,1037
105.4,924
105.48,781
105.56,946
105.64,881
105.72,836
105.8,622
105.88,494
105.96,459
106.04,402
106.12,351
106.2,346
106.28,321
106.36,331
106.44,384
106.52,389
106.6,329
106.68,314
106.76,319
106.84,319
106.92,256
107,316
107.08,304
107.16,296
107.24,241
107.32,256
107.4,259
107.48,248
107.56,226
107.64,213
107.72,228
107.8,181
107.88,211
107.96,196
108.04,213
108.12,193
108.2,216
108.28,151
108.36,158
108.44,203
108.52,206
108.6,218
108.68,181
108.76,201
108.84,173
108.92,233
109,218
109.08,233
109.16,269
109.24,238
109.32,218
109.4,321
109.48,374
109.56,479
109.64,595
109.72,821
109.8,828
109.88,914
109.96,793
110.04,863
110.12,1009
110.2,1305
110.28,1546
110.36,1473
110.44,1220
110.52,1034
110.6,1107
110.68,1333
110.76,1408
110.84,1235
110.92,929
111,740
111.08,690
111.16,735
111.24,567
111.32,550
111.4,432
111.48,346
111.56,314
111.64,264
111.72,286
111.8,264
111.88,269
111.96,289
112.04,228
112.12,264
112.2,276
112.28,316
112.36,326
112.44,281
112.52,216
112.6,208
112.68,274
112.76,276
112.84,243
112.92,271
113,216
113.08,218
113.16,198
113.24,193
113.32,218
113.4,206
113.48,216
113.56,216
113.64,261
113.72,316
113.8,304
113.88,349
113.96,296
114.04,301
114.12,274
114.2,314
114.28,254
114.36,301
114.44,306
114.52,251
114.6,314
114.68,354
114.76,294
114.84,301
114.92,289
115,264
115.08,196
115.16,236
115.24,228
115.32,213
115.4,284
115.48,186
115.56,161
115.64,133
115.72,161
115.8,221
115.88,166
115.96,148
116.04,201
116.12,178
116.2,188
116.28,196
116.36,171
116.44,221
116.52,223
116.6,183
116.68,213
116.76,193
116.84,216
116.92,266
117,198
117.08,226
117.16,261
117.24,334
117.32,316
117.4,457
117.48,585
117.56,703
117.64,645
117.72,557
117.8,487
117.88,545
117.96,515
118.04,610
118.12,497
118.2,622
118.28,577
118.36,525
118.44,487
118.52,397
118.6,369
118.68,359
118.76,366
118.84,329
118.92,294
119,271
119.08,248
119.16,334
119.24,316
119.32,399
119.4,289
119.48,354
119.56,324
119.64,266
119.72,306
119.8,321
119.88,296
119.96,289
120.04,261