File: data/xrd_icdd_PDF/00-062-0719 (PD3).csv
10,5214
10.08,4805
10.16,4670
10.24,4775
10.32,4893
10.4,4695
10.48,4586
10.56,4770
10.64,4885
10.72,4579
10.8,4795
10.88,4638
10.96,4719
11.04,4690
11.12,4379
11.2,4766
11.28,4477
11.36,4727
11.44,4532
11.52,4931
11.6,4265
11.68,4587
11.76,4649
11.84,4351
11.92,4543
12,4576
12.08,4587
12.16,4320
12.24,4563
12.32,4489
12.4,4487
12.48,4184
12.56,4586
12.64,4261
12.72,4300
12.8,4247
12.88,4359
12.96,4230
13.04,4195
13.12,4098
13.2,4142
13.28,4221
13.36,4433
13.44,4163
13.52,4235
13.6,4043
13.68,4204
13.76,4207
13.84,4160
13.92,4219
14,4061
14.08,4190
14.16,3943
14.24,4031
14.32,4040
14.4,4321
14.48,3995
14.56,3917
14.64,3934
14.72,3816
14.8,3891
14.88,4300
14.96,4079
15.04,4084
15.12,3901
15.2,3975
15.28,4019
15.36,3931
15.44,3889
15.52,3639
15.6,3909
15.68,3841
15.76,3721
15.84,3801
15.92,3913
16,3804
16.08,3691
16.16,3918
16.24,3903
16.32,3855
16.4,3710
16.48,4023
16.56,3842
16.64,3941
16.72,4284
16.8,3836
16.88,3908
16.96,3951
17.04,3735
17.12,3659
17.2,3812
17.28,3826
17.36,3986
17.44,4255
17.52,5335
17.6,7907
17.68,15013
17.76,7633
17.84,3899
17.92,3716
18,3740
18.08,3870
18.16,3760
18.24,3554
18.32,3651
18.4,3547
18.48,3840
18.56,3847
18.64,3487
18.72,3782
18.8,3483
18.88,3686
18.96,3637
19.04,4053
19.12,3970
19.2,4414
19.28,5839
19.36,6452
19.44,3916
19.52,3587
19.6,3873
19.68,3445
19.76,3618
19.84,3292
19.92,3571
20,3438
20.08,3518
20.16,3501
20.24,3691
20.32,3658
20.4,3439
20.48,3475
20.56,3565
20.64,3218
20.72,3623
20.8,3608
20.88,3587
20.96,3484
21.04,3163
21.12,3663
21.2,3388
21.28,3213
21.36,3419
21.44,3506
21.52,3375
21.6,3337
21.68,3321
21.76,3667
21.84,3939
21.92,3578
22,3660
22.08,3794
22.16,4103
22.24,5312
22.32,9503
22.4,15945
22.48,6967
22.56,3762
22.64,3604
22.72,3363
22.8,3566
22.88,3487
22.96,3614
23.04,3437
23.12,3505
23.2,3685
23.28,3479
23.36,3580
23.44,3835
23.52,3454
23.6,3770
23.68,3505
23.76,3678
23.84,3516
23.92,3855
24,3739
24.08,3719
24.16,3918
24.24,5373
24.32,8336
24.4,21049
24.48,14827
24.56,4738
24.64,3646
24.72,3272
24.8,3257
24.88,3576
24.96,3482
25.04,3611
25.12,3461
25.2,3353
25.28,3331
25.36,3285
25.44,3665
25.52,4952
25.6,12001
25.68,16407
25.76,6787
25.84,3786
25.92,3718
26,3513
26.08,3549
26.16,3377
26.24,3457
26.32,3535
26.4,3387
26.48,3349
26.56,3406
26.64,3204
26.72,3370
26.8,3334
26.88,3362
26.96,3084
27.04,3179
27.12,3469
27.2,3026
27.28,3095
27.36,3073
27.44,3195
27.52,3011
27.6,3221
27.68,3199
27.76,3239
27.84,2976
27.92,3270
28,3333
28.08,3284
28.16,3152
28.24,3401
28.32,3273
28.4,3152
28.48,3161
28.56,3527
28.64,3260
28.72,3122
28.8,3464
28.88,3372
28.96,2838
29.04,3289
29.12,3060
29.2,3242
29.28,3068
29.36,3432
29.44,4056
29.52,4996
29.6,9819
29.68,27334
29.76,38019
29.84,24160
29.92,8751
30,4173
30.08,3434
30.16,3321
30.24,3142
30.32,3085
30.4,3003
30.48,2981
30.56,3412
30.64,3332
30.72,3471
30.8,3262
30.88,3156
30.96,3389
31.04,3221
31.12,3342
31.2,4441
31.28,7764
31.36,21686
31.44,26405
31.52,12043
31.6,4445
31.68,3346
31.76,3135
31.84,3454
31.92,3209
32,3072
32.08,3169
32.16,3098
32.24,3131
32.32,3122
32.4,2992
32.48,3104
32.56,3117
32.64,3526
32.72,7663
32.8,25867
32.88,22938
32.96,10200
33.04,3823
33.12,3329
33.2,3287
33.28,3471
33.36,3211
33.44,3665
33.52,4172
33.6,5585
33.68,11201
33.76,46805
33.84,29620
33.92,9608
34,3837
34.08,3241
34.16,3689
34.24,4365
34.32,8540
34.4,12006
34.48,7873
34.56,3715
34.64,3410
34.72,3485
34.8,3059
34.88,3132
34.96,3934
35.04,6756
35.12,18279
35.2,46610
35.28,28419
35.36,8254
35.44,4037
35.52,3445
35.6,4139
35.68,8376
35.76,27423
35.84,17668
35.92,8444
36,4042
36.08,3133
36.16,2956
36.24,2629
36.32,2660
36.4,2856
36.48,2798
36.56,2605
36.64,2493
36.72,2690
36.8,2827
36.88,2869
36.96,3372
37.04,4979
37.12,4363
37.2,3403
37.28,2763
37.36,2759
37.44,2755
37.52,2783
37.6,2830
37.68,2921
37.76,2866
37.84,2790
37.92,3148
38,3296
38.08,2906
38.16,3344
38.24,6082
38.32,18266
38.4,24719
38.48,15700
38.56,5324
38.64,3552
38.72,3488
38.8,3635
38.88,3431
38.96,3017
39.04,3040
39.12,3538
39.2,6006
39.28,4390
39.36,3138
39.44,3331
39.52,4136
39.6,7149
39.68,27271
39.76,25965
39.84,18667
39.92,6063
40,4042
40.08,3268
40.16,2966
40.24,3249
40.32,2885
40.4,2885
40.48,2816
40.56,2814
40.64,2811
40.72,2719
40.8,2786
40.88,2675
40.96,2709
41.04,2858
41.12,2806
41.2,2749
41.28,2715
41.36,2788
41.44,2355
41.52,2565
41.6,2276
41.68,2827
41.76,2513
41.84,2680
41.92,2801
42,3324
42.08,6363
42.16,4639
42.24,4154
42.32,2929
42.4,2617
42.48,2570
42.56,2639
42.64,3046
42.72,3101
42.8,4097
42.88,7671
42.96,5657
43.04,4056
43.12,3194
43.2,2883
43.28,3101
43.36,3129
43.44,2930
43.52,3221
43.6,2856
43.68,2955
43.76,2753
43.84,3207
43.92,2966
44,2696
44.08,2987
44.16,2487
44.24,2913
44.32,3054
44.4,2639
44.48,2781
44.56,2798
44.64,2787
44.72,2812
44.8,3101
44.88,2864
44.96,3217
45.04,3434
45.12,5390
45.2,11485
45.28,7427
45.36,5237
45.44,4737
45.52,8092
45.6,16595
45.68,18897
45.76,11958
45.84,6227
45.92,3619
46,2907
46.08,2890
46.16,2804
46.24,3014
46.32,2960
46.4,3060
46.48,3449
46.56,4047
46.64,4738
46.72,10758
46.8,18551
46.88,11987
46.96,6184
47.04,3480
47.12,3230
47.2,2861
47.28,3127
47.36,2803
47.44,2755
47.52,2927
47.6,3496
47.68,4355
47.76,11488
47.84,12981
47.92,10841
48,4735
48.08,3305
48.16,2986
48.24,2979
48.32,2792
48.4,2818
48.48,2901
48.56,2858
48.64,3147
48.72,3754
48.8,3235
48.88,2771
48.96,2745
49.04,2737
49.12,2747
49.2,2930
49.28,3124
49.36,2659
49.44,3161
49.52,3039
49.6,3485
49.68,3844
49.76,7747
49.84,4874
49.92,5041
50,4219
50.08,3169
50.16,3380
50.24,2481
50.32,2944
50.4,2755
50.48,3007
50.56,2642
50.64,2802
50.72,2859
50.8,2485
50.88,2632
50.96,2587
51.04,2529
51.12,2448
51.2,2688
51.28,2704
51.36,2419
51.44,2887
51.52,3154
51.6,4036
51.68,5477
51.76,4167
51.84,3873
51.92,4318
52,12584
52.08,6646
52.16,8062
52.24,4075
52.32,3060
52.4,2597
52.48,2971
52.56,3161
52.64,3512
52.72,3751
52.8,7123
52.88,9292
52.96,7210
53.04,9785
53.12,10278
53.2,7511
53.28,5260
53.36,3135
53.44,2899
53.52,2589
53.6,2829
53.68,2926
53.76,2848
53.84,3155
53.92,3564
54,7083
54.08,5561
54.16,5634
54.24,3777
54.32,2933
54.4,2949
54.48,2988
54.56,3293
54.64,3032
54.72,3378
54.8,6034
54.88,8734
54.96,8033
55.04,11462
55.12,7303
55.2,6608
55.28,3924
55.36,3468
55.44,3255
55.52,3354
55.6,5642
55.68,7868
55.76,5147
55.84,5263
55.92,3212
56,3019
56.08,2960
56.16,2838
56.24,2473
56.32,2402
56.4,2704
56.48,2438
56.56,2345
56.64,2442
56.72,2517
56.8,2525
56.88,2458
56.96,2577
57.04,2359
57.12,2410
57.2,2483
57.28,2406
57.36,2328
57.44,2660
57.52,2497
57.6,2627
57.68,2590
57.76,3111
57.84,3016
57.92,4330
58,3102
58.08,3208
58.16,2663
58.24,2599
58.32,2609
58.4,2641
58.48,2538
58.56,3230
58.64,5046
58.72,8186
58.8,4871
58.88,6450
58.96,4140
59.04,2985
59.12,3229
59.2,3015
59.28,2512
59.36,2569
59.44,2497
59.52,2430
59.6,2474
59.68,2374
59.76,2383
59.84,2747
59.92,2355
60,2893
60.08,2477
60.16,2527
60.24,2617
60.32,2676
60.4,2942
60.48,2824
60.56,2727
60.64,3256
60.72,4815
60.8,6657
60.88,4310
60.96,4749
61.04,3261
61.12,2920
61.2,3012
61.28,5322
61.36,6476
61.44,5466
61.52,6439
61.6,4772
61.68,9469
61.76,6258
61.84,6789
61.92,10049
62,4436
62.08,5489
62.16,3647
62.24,2818
62.32,2893
62.4,2746
62.48,3190
62.56,5146
62.64,3143
62.72,3920
62.8,3303
62.88,3088
62.96,2882
63.04,3546
63.12,7094
63.2,5051
63.28,4824
63.36,5410
63.44,9211
63.52,6056
63.6,6039
63.68,5383
63.76,3748
63.84,3316
63.92,3299
64,3362
64.08,3284
64.16,5030
64.24,5610
64.32,6552
64.4,17628
64.48,8529
64.56,10025
64.64,7732
64.72,4122
64.8,4193
64.88,3250
64.96,3091
65.04,3173
65.12,3161
65.2,4406
65.28,4935
65.36,3709
65.44,4365
65.52,4245
65.6,2910
65.68,3649
65.76,3382
65.84,3144
65.92,4591
66,6823
66.08,3876
66.16,5292
66.24,3459
66.32,3126
66.4,2957
66.48,3019
66.56,3171
66.64,4515
66.72,5817
66.8,3730
66.88,4483
66.96,3111
67.04,2893
67.12,2964
67.2,2843
67.28,2907
67.36,2767
67.44,2300
67.52,3108
67.6,2914
67.68,2422
67.76,3043
67.84,2940
67.92,3149
68,3115
68.08,3417
68.16,4064
68.24,2960
68.32,3413
68.4,3047
68.48,3101
68.56,3073
68.64,3835
68.72,11971
68.8,7037
68.88,5491
68.96,8127
69.04,3886
69.12,3266
69.2,3058
69.28,3190
69.36,3361
69.44,6666
69.52,4869
69.6,5326
69.68,7097
69.76,4051
69.84,5373
69.92,3667
70,2991
70.08,3044
70.16,2873
70.24,2641
70.32,2557
70.4,2401
70.48,2863
70.56,2641
70.64,2657
70.72,2982
70.8,2624
70.88,2866
70.96,2617
71.04,2917
71.12,4016
71.2,4859
71.28,4081
71.36,7030
71.44,4238
71.52,3837
71.6,3902
71.68,3243
71.76,3027
71.84,4684
71.92,4112
72,5503
72.08,4621
72.16,3807
72.24,4106
72.32,4091
72.4,6755
72.48,4505
72.56,3918
72.64,4596
72.72,3199
72.8,2624
72.88,3177
72.96,4420
73.04,5516
73.12,4409
73.2,7862
73.28,11721
73.36,5261
73.44,7201
73.52,5391
73.6,3337
73.68,3409
73.76,4196
73.84,8668
73.92,4272
74,4425
74.08,5291
74.16,3711
74.24,2810
74.32,3076
74.4,2787
74.48,2914
74.56,3059
74.64,3095
74.72,3927
74.8,3137
74.88,2776
74.96,2789
75.04,2855
75.12,2773
75.2,3010
75.28,2741
75.36,2601
75.44,2912
75.52,2490
75.6,2543
75.68,2963
75.76,3806
75.84,2492
75.92,2947
76,3419
76.08,3113
76.16,2949
76.24,3307
76.32,5263
76.4,4496
76.48,3504
76.56,4695
76.64,3678
76.72,3122
76.8,3129
76.88,3272
76.96,2873
77.04,2930
77.12,2806
77.2,3295
77.28,2745
77.36,2982
77.44,2879
77.52,2757
77.6,2537
77.68,2591
77.76,2690
77.84,2612
77.92,2699
78,2706
78.08,2550
78.16,3216
78.24,4414
78.32,3573
78.4,3032
78.48,4032
78.56,3954
78.64,3445
78.72,3677
78.8,3369
78.88,3050
78.96,3133
79.04,2826
79.12,2688
79.2,2689
79.28,2867
79.36,3100
79.44,5471
79.52,7196
79.6,3878
79.68,6162
79.76,5583
79.84,4173
79.92,4678
80,3047
80.08,3418
80.16,3609
80.24,2904
80.32,2771
80.4,3929
80.48,5470
80.56,3252
80.64,3231
80.72,4447
80.8,2960
80.88,2849
80.96,2533
81.04,2681
81.12,3631
81.2,2938
81.28,2748
81.36,3058
81.44,2804
81.52,2600
81.6,2305
81.68,2273
81.76,3059
81.84,2909
81.92,2766
82,2619
82.08,3452
82.16,3293
82.24,2793
82.32,2788
82.4,3199
82.48,2838
82.56,2505
82.64,2600
82.72,2565
82.8,2302
82.88,2193
82.96,2440
83.04,2476
83.12,2559
83.2,2819
83.28,3034
83.36,4138
83.44,6325
83.52,3760
83.6,3592
83.68,6876
83.76,4696
83.84,3293
83.92,3456
84,3508
84.08,2937
84.16,3605
84.24,4644
84.32,5310
84.4,7291
84.48,4417
84.56,3554
84.64,4880
84.72,3783
84.8,2945
84.88,2516
84.96,2797
85.04,2577
85.12,2753
85.2,2607
85.28,2705
85.36,3142
85.44,2981
85.52,3215
85.6,3054
85.68,3911
85.76,3084
85.84,2755
85.92,2886
86,3168
86.08,2962
86.16,3908
86.24,2934
86.32,2865
86.4,2670
86.48,3467
86.56,2877
86.64,3395
86.72,2969
86.8,2623
86.88,2710
86.96,2863
87.04,2307
87.12,2506
87.2,2578
87.28,3677
87.36,3878
87.44,2778
87.52,2686
87.6,3210
87.68,2693
87.76,2488
87.84,2520
87.92,2969
88,3952
88.08,2747
88.16,2590
88.24,3608
88.32,3234
88.4,4002
88.48,4223
88.56,5221
88.64,4211
88.72,3447
88.8,4026
88.88,3714
88.96,2866
89.04,2810
89.12,2975
89.2,5586
89.28,4162
89.36,3264
89.44,3959
89.52,4140
89.6,2927
89.68,2900
89.76,2509
89.84,2359
89.92,2683
90,2249
90.08,2518
90.16,2221
90.24,2232
90.32,2240
90.4,2547
90.48,3445
90.56,4213
90.64,2936
90.72,2402
90.8,3296
90.88,3191
90.96,3610
91.04,3661
91.12,2825
91.2,2373
91.28,3179
91.36,2692
91.44,2331
91.52,2624
91.6,3101
91.68,3011
91.76,3386
91.84,4176
91.92,2947
92,3190
92.08,3183
92.16,2949
92.24,2409
92.32,2521
92.4,2309
92.48,2561
92.56,2435
92.64,2435
92.72,2938
92.8,4108
92.88,3319
92.96,2706
93.04,3254
93.12,3411
93.2,2991
93.28,3486
93.36,4439
93.44,3912
93.52,3048
93.6,3127
93.68,3643
93.76,3201
93.84,2979
93.92,3761
94,2935
94.08,2617
94.16,3132
94.24,3623
94.32,3064
94.4,3502
94.48,3150
94.56,2929
94.64,2646
94.72,2804
94.8,2754
94.88,2613
94.96,3186
95.04,2929
95.12,2420
95.2,2771
95.28,3201
95.36,3831
95.44,3100
95.52,2759
95.6,3324
95.68,4601
95.76,3782
95.84,3324
95.92,3080
96,3121
96.08,2817
96.16,2828
96.24,2476
96.32,2764
96.4,2457
96.48,2528
96.56,2716
96.64,2921
96.72,2782
96.8,2510
96.88,2651
96.96,3119
97.04,3925
97.12,2702
97.2,2694
97.28,2882
97.36,3221
97.44,2572
97.52,2687
97.6,3261
97.68,4189
97.76,2958
97.84,2679
97.92,3759
98,3944
98.08,3073
98.16,2455
98.24,3028
98.32,3112
98.4,2495
98.48,2551
98.56,2645
98.64,2380
98.72,2464
98.8,3104
98.88,4534
98.96,4161
99.04,3688
99.12,4080
99.2,3324
99.28,3266
99.36,2725
99.44,3052
99.52,2630
99.6,2628
99.68,2552
99.76,2436
99.84,2639
99.92,2598
100,2434