File: data/xrd_icdd_PDF/00-057-0441 (PD3).csv
10,7872
10.08,7694
10.16,7760
10.24,7476
10.32,7542
10.4,7486
10.48,7007
10.56,7077
10.64,7129
10.72,6946
10.8,6951
10.88,6917
10.96,6772
11.04,6917
11.12,6942
11.2,6798
11.28,6800
11.36,6747
11.44,6834
11.52,6737
11.6,6674
11.68,6606
11.76,6585
11.84,6607
11.92,6757
12,6601
12.08,6772
12.16,6539
12.24,6517
12.32,6427
12.4,6563
12.48,6732
12.56,6290
12.64,6191
12.72,6120
12.8,6359
12.88,6325
12.96,6368
13.04,6715
13.12,7187
13.2,7546
13.28,6691
13.36,6193
13.44,6315
13.52,6329
13.6,6106
13.68,6135
13.76,6133
13.84,6094
13.92,5990
14,6135
14.08,5922
14.16,6067
14.24,6148
14.32,6130
14.4,6420
14.48,6371
14.56,6228
14.64,5997
14.72,6033
14.8,6171
14.88,6070
14.96,5883
15.04,6060
15.12,5968
15.2,6036
15.28,5735
15.36,6014
15.44,5977
15.52,5997
15.6,6210
15.68,6426
15.76,6172
15.84,5817
15.92,5611
16,5805
16.08,5479
16.16,5672
16.24,5542
16.32,5701
16.4,5795
16.48,5545
16.56,5526
16.64,5655
16.72,5740
16.8,5623
16.88,5837
16.96,6245
17.04,6692
17.12,6181
17.2,5455
17.28,5249
17.36,5222
17.44,5249
17.52,5324
17.6,5584
17.68,5256
17.76,5268
17.84,5349
17.92,5315
18,5059
18.08,5173
18.16,5108
18.24,5244
18.32,5356
18.4,5196
18.48,5132
18.56,5059
18.64,5229
18.72,5135
18.8,5217
18.88,5117
18.96,5089
19.04,4952
19.12,5018
19.2,5047
19.28,4897
19.36,5062
19.44,5122
19.52,4989
19.6,5103
19.68,4935
19.76,5035
19.84,4965
19.92,5186
20,5042
20.08,5144
20.16,4933
20.24,4720
20.32,4930
20.4,4930
20.48,4974
20.56,4921
20.64,5060
20.72,5050
20.8,4948
20.88,5162
20.96,5045
21.04,5259
21.12,5467
21.2,5613
21.28,6373
21.36,7716
21.44,10650
21.52,19631
21.6,34532
21.68,25863
21.76,9567
21.84,5756
21.92,5346
22,5300
22.08,5009
22.16,5049
22.24,4975
22.32,4996
22.4,4858
22.48,4782
22.56,4785
22.64,4970
22.72,5083
22.8,4953
22.88,5069
22.96,5349
23.04,6019
23.12,5535
23.2,4931
23.28,4693
23.36,4693
23.44,4794
23.52,4710
23.6,4622
23.68,4717
23.76,4540
23.84,4727
23.92,4692
24,4856
24.08,4613
24.16,4669
24.24,4744
24.32,4896
24.4,5300
24.48,6577
24.56,8926
24.64,9015
24.72,6069
24.8,4909
24.88,4586
24.96,4511
25.04,4590
25.12,4506
25.2,4450
25.28,4523
25.36,4722
25.44,4571
25.52,4566
25.6,4414
25.68,4384
25.76,4397
25.84,4491
25.92,4326
26,4561
26.08,4644
26.16,4717
26.24,4899
26.32,5467
26.4,6533
26.48,10597
26.56,14783
26.64,10665
26.72,5873
26.8,4833
26.88,4741
26.96,4479
27.04,4328
27.12,4362
27.2,4433
27.28,4353
27.36,4333
27.44,4443
27.52,4465
27.6,4710
27.68,4584
27.76,4775
27.84,5242
27.92,5994
28,6164
28.08,5100
28.16,4566
28.24,4467
28.32,4465
28.4,4501
28.48,4724
28.56,4845
28.64,5346
28.72,6616
28.8,8183
28.88,10271
28.96,14174
29.04,11628
29.12,7429
29.2,5397
29.28,5134
29.36,5232
29.44,5028
29.52,4975
29.6,5720
29.68,7272
29.76,11692
29.84,18348
29.92,12896
30,6618
30.08,5118
30.16,4853
30.24,4610
30.32,4880
30.4,4783
30.48,4880
30.56,4868
30.64,5555
30.72,5853
30.8,7267
30.88,10978
30.96,21202
31.04,45230
31.12,44817
31.2,20308
31.28,8115
31.36,5936
31.44,5443
31.52,5462
31.6,6551
31.68,9412
31.76,10030
31.84,6973
31.92,5033
32,4576
32.08,4414
32.16,4460
32.24,4481
32.32,4428
32.4,4503
32.48,4370
32.56,4622
32.64,5091
32.72,5003
32.8,4522
32.88,4479
32.96,4358
33.04,4352
33.12,4448
33.2,4382
33.28,4306
33.36,4547
33.44,4481
33.52,4489
33.6,4646
33.68,4651
33.76,4707
33.84,4787
33.92,4805
34,5120
34.08,5322
34.16,6046
34.24,7667
34.32,11418
34.4,22909
34.48,40341
34.56,44380
34.64,29700
34.72,23443
34.8,20461
34.88,12291
34.96,6932
35.04,5621
35.12,5196
35.2,5057
35.28,4964
35.36,4761
35.44,4615
35.52,4584
35.6,4431
35.68,4554
35.76,4612
35.84,4542
35.92,4520
36,4452
36.08,4345
36.16,4484
36.24,4413
36.32,4285
36.4,4386
36.48,4352
36.56,4289
36.64,4314
36.72,4379
36.8,4460
36.88,4396
36.96,4872
37.04,5603
37.12,5125
37.2,4615
37.28,4437
37.36,4367
37.44,4151
37.52,4193
37.6,4416
37.68,4394
37.76,4346
37.84,4268
37.92,4312
38,4350
38.08,4335
38.16,4290
38.24,4052
38.32,4224
38.4,4212
38.48,4253
38.56,4365
38.64,4210
38.72,4251
38.8,4221
38.88,4401
38.96,4246
39.04,4263
39.12,4217
39.2,4370
39.28,4583
39.36,4669
39.44,4822
39.52,5380
39.6,7158
39.68,10738
39.76,15235
39.84,12284
39.92,8248
40,5322
40.08,4887
40.16,4804
40.24,4998
40.32,6079
40.4,6116
40.48,5431
40.56,4608
40.64,4423
40.72,4326
40.8,4363
40.88,4431
40.96,4335
41.04,4493
41.12,5127
41.2,6028
41.28,8370
41.36,8880
41.44,6854
41.52,5140
41.6,4809
41.68,5157
41.76,7038
41.84,10691
41.92,8828
42,6777
42.08,5100
42.16,4736
42.24,4705
42.32,4438
42.4,4450
42.48,4777
42.56,4919
42.64,4792
42.72,4627
42.8,4369
42.88,4460
42.96,4476
43.04,4518
43.12,4467
43.2,4539
43.28,4510
43.36,4692
43.44,4872
43.52,5253
43.6,5428
43.68,6176
43.76,7877
43.84,11772
43.92,22253
44,43545
44.08,40436
44.16,25612
44.24,11369
44.32,6422
44.4,5020
44.48,4741
44.56,4447
44.64,4552
44.72,5015
44.8,6927
44.88,11357
44.96,12739
45.04,9938
45.12,6475
45.2,4590
45.28,4139
45.36,3920
45.44,3944
45.52,4270
45.6,4518
45.68,4091
45.76,3986
45.84,3644
45.92,3695
46,3757
46.08,4455
46.16,4839
46.24,4649
46.32,4210
46.4,3689
46.48,3564
46.56,3473
46.64,3495
46.72,3456
46.8,3522
46.88,3483
46.96,3388
47.04,3496
47.12,3595
47.2,3568
47.28,3508
47.36,3486
47.44,3519
47.52,3570
47.6,3457
47.68,3320
47.76,3505
47.84,3568
47.92,3578
48,3785
48.08,4108
48.16,4095
48.24,4639
48.32,6114
48.4,6359
48.48,5528
48.56,4454
48.64,3796
48.72,3634
48.8,3592
48.88,3617
48.96,3558
49.04,3607
49.12,3495
49.2,3592
49.28,3585
49.36,3700
49.44,3483
49.52,3587
49.6,3853
49.68,4127
49.76,4345
49.84,4214
49.92,3984
50,3797
50.08,3816
50.16,3904
50.24,4566
50.32,6691
50.4,6539
50.48,5795
50.56,4457
50.64,3833
50.72,3626
50.8,3525
50.88,3551
50.96,3381
51.04,3643
51.12,3639
51.2,3774
51.28,3556
51.36,3733
51.44,3772
51.52,3882
51.6,4362
51.68,4523
51.76,4554
51.84,4054
51.92,3700
52,3779
52.08,3612
52.16,3449
52.24,3573
52.32,3461
52.4,3505
52.48,3670
52.56,3908
52.64,4134
52.72,5215
52.8,5516
52.88,6128
52.96,6834
53.04,5086
53.12,4846
53.2,4144
53.28,4307
53.36,5088
53.44,7004
53.52,12879
53.6,16172
53.68,12702
53.76,9603
53.84,5747
53.92,4476
54,4562
54.08,4630
54.16,4435
54.24,5105
54.32,5533
54.4,5407
54.48,5628
54.56,7745
54.64,10053
54.72,8411
54.8,7133
54.88,4970
54.96,3887
55.04,3670
55.12,3559
55.2,3813
55.28,3862
55.36,4282
55.44,4965
55.52,4306
55.6,4156
55.68,3947
55.76,4197
55.84,5069
55.92,5712
56,5645
56.08,5139
56.16,4357
56.24,3899
56.32,3571
56.4,3639
56.48,3454
56.56,3495
56.64,3614
56.72,3474
56.8,3580
56.88,3607
56.96,3724
57.04,3440
57.12,3498
57.2,3517
57.28,3493
57.36,3479
57.44,3741
57.52,3872
57.6,4318
57.68,5917
57.76,7804
57.84,7507
57.92,6521
58,5457
58.08,4612
58.16,4732
58.24,5909
58.32,5251
58.4,4887
58.48,4304
58.56,3808
58.64,3649
58.72,3428
58.8,3435
58.88,3525
58.96,3513
59.04,3534
59.12,3653
59.2,3702
59.28,3639
59.36,3891
59.44,4190
59.52,5637
59.6,7918
59.68,6840
59.76,6291
59.84,5008
59.92,4236
60,4008
60.08,3923
60.16,3702
60.24,3825
60.32,3838
60.4,4234
60.48,4518
60.56,4205
60.64,4559
60.72,5329
60.8,5504
60.88,4766
60.96,4362
61.04,3869
61.12,3734
61.2,3440
61.28,3400
61.36,3393
61.44,3519
61.52,3515
61.6,3508
61.68,4771
61.76,4221
61.84,3891
61.92,3661
62,3670
62.08,3570
62.16,3320
62.24,3493
62.32,3391
62.4,3427
62.48,3366
62.56,3445
62.64,3435
62.72,3585
62.8,3534
62.88,3384
62.96,3434
63.04,3294
63.12,3323
63.2,3445
63.28,3434
63.36,3653
63.44,3461
63.52,3682
63.6,3666
63.68,3546
63.76,3655
63.84,3624
63.92,3605
64,3634
64.08,3891
64.16,3774
64.24,4010
64.32,4115
64.4,4280
64.48,4744
64.56,6273
64.64,10376
64.72,13732
64.8,10096
64.88,9671
64.96,6930
65.04,4887
65.12,4008
65.2,3799
65.28,3661
65.36,3711
65.44,3643
65.52,3602
65.6,3524
65.68,3588
65.76,3709
65.84,3655
65.92,3954
66,4153
66.08,4176
66.16,5166
66.24,5312
66.32,4629
66.4,4615
66.48,4250
66.56,4034
66.64,3860
66.72,4049
66.8,4455
66.88,4192
66.96,3864
67.04,4085
67.12,3777
67.2,3692
67.28,3675
67.36,4122
67.44,5110
67.52,5101
67.6,4700
67.68,4539
67.76,4049
67.84,3835
67.92,3906
68,4221
68.08,4736
68.16,5023
68.24,5297
68.32,6633
68.4,7185
68.48,6371
68.56,6154
68.64,5173
68.72,4583
68.8,3947
68.88,3826
68.96,3753
69.04,3823
69.12,3750
69.2,3609
69.28,3792
69.36,3925
69.44,4178
69.52,4596
69.6,4234
69.68,3945
69.76,3976
69.84,3694
69.92,3690
70,3954
70.08,3869
70.16,3784
70.24,3750
70.32,3760
70.4,3955
70.48,4008
70.56,4515
70.64,6176
70.72,6922
70.8,5941
70.88,5582
70.96,5283
71.04,4227
71.12,3831
71.2,3923
71.28,3847
71.36,3564
71.44,3651
71.52,3702
71.6,3765
71.68,3978
71.76,4030
71.84,3848
71.92,3927
72,3843
72.08,3899
72.16,3966
72.24,4243
72.32,4333
72.4,4272
72.48,4719
72.56,5081
72.64,6694
72.72,7612
72.8,8549
72.88,8642
72.96,7005
73.04,6621
73.12,5825
73.2,5309
73.28,6704
73.36,6919
73.44,5997
73.52,6038
73.6,5390
73.68,4491
73.76,4273
73.84,3964
73.92,4202
74,4743
74.08,5157
74.16,5926
74.24,5244
74.32,4792
74.4,4591
74.48,3962
74.56,3772
74.64,3728
74.72,3564
74.8,3631
74.88,3578
74.96,3598
75.04,3723
75.12,3655
75.2,3719
75.28,3699
75.36,3746
75.44,3908
75.52,3791
75.6,3801
75.68,4047
75.76,3952
75.84,4207
75.92,4659
76,5098
76.08,5642
76.16,5795
76.24,5368
76.32,5071
76.4,4493
76.48,4224
76.56,4176
76.64,3993
76.72,3891
76.8,3976
76.88,4304
76.96,4722
77.04,4292
77.12,4430
77.2,4513
77.28,5683
77.36,5841
77.44,5159
77.52,5045
77.6,5008
77.68,4685
77.76,5239
77.84,6517
77.92,6300
78,5392
78.08,5346
78.16,5067
78.24,4420
78.32,4025
78.4,3981
78.48,3915
78.56,4008
78.64,4200
78.72,4246
78.8,5091
78.88,4923
78.96,4573
79.04,4654
79.12,4615
79.2,4202
79.28,4307
79.36,4166
79.44,3809
79.52,3819
79.6,3741
79.68,3797
79.76,3639
79.84,3687
79.92,3626
80,3678
80.08,3573
80.16,3554
80.24,3741
80.32,3962
80.4,3825
80.48,3709
80.56,3709
80.64,3903
80.72,4074
80.8,3702
80.88,3712
80.96,3852
81.04,3755
81.12,3648
81.2,3692
81.28,3665
81.36,3626
81.44,3677
81.52,3755
81.6,3789
81.68,3816
81.76,3860
81.84,3668
81.92,3700
82,3826
82.08,3767
82.16,3938
82.24,5390
82.32,5363
82.4,5348
82.48,6647
82.56,6876
82.64,5332
82.72,5334
82.8,4821
82.88,4080
82.96,3716
83.04,3944
83.12,4421
83.2,4083
83.28,3881
83.36,4080
83.44,4044
83.52,4350
83.6,4841
83.68,4391
83.76,4416
83.84,4372
83.92,4260
84,3814
84.08,3792
84.16,3750
84.24,3576
84.32,3541
84.4,3534
84.48,4297
84.56,4476
84.64,4392
84.72,4448
84.8,4608
84.88,4678
84.96,5278
85.04,5965
85.12,5519
85.2,4950
85.28,5244
85.36,5205
85.44,5190
85.52,5035
85.6,5781
85.68,5438
85.76,5310
85.84,5346
85.92,5220
86,4374
86.08,4399
86.16,4428
86.24,4166
86.32,4268
86.4,4282
86.48,4299
86.56,3767
86.64,3835
86.72,3702
86.8,3813
86.88,3785
86.96,4265
87.04,4151
87.12,4127
87.2,4137
87.28,3911
87.36,3879
87.44,3806
87.52,3646
87.6,3782
87.68,3925
87.76,4265
87.84,4396
87.92,3969
88,3877
88.08,4272
88.16,4569
88.24,4440
88.32,3972
88.4,4005
88.48,4074
88.56,3949
88.64,3828
88.72,3886
88.8,3502
88.88,3746
88.96,3826
89.04,3799
89.12,3845
89.2,4102
89.28,4634
89.36,4921
89.44,5210
89.52,5162
89.6,5373
89.68,5601
89.76,5011
89.84,5519
89.92,5462
90,5373
90.08,5193
90.16,4986
90.24,4707
90.32,4748
90.4,4773
90.48,4678
90.56,4734
90.64,4782
90.72,4795
90.8,4933
90.88,4690
90.96,4884
91.04,5050
91.12,5533
91.2,5134
91.28,5149
91.36,5105
91.44,5241
91.52,4591
91.6,4627
91.68,4433
91.76,4625
91.84,4661
91.92,4499
92,4581
92.08,4498
92.16,4566
92.24,4477
92.32,4635
92.4,4698
92.48,4851
92.56,5511
92.64,5727
92.72,5281
92.8,5310
92.88,5659
92.96,6004
93.04,6031
93.12,5832
93.2,5271
93.28,5523
93.36,5727
93.44,5113
93.52,4826
93.6,4678
93.68,4841
93.76,4705
93.84,4503
93.92,4615
94,4899
94.08,4843
94.16,4709
94.24,4547
94.32,4583
94.4,4828
94.48,4999
94.56,4790
94.64,4646
94.72,4731
94.8,4642
94.88,4617
94.96,4588
95.04,4464
95.12,4603
95.2,4788
95.28,4729
95.36,4882
95.44,5202
95.52,5967
95.6,6067
95.68,6077
95.76,5681
95.84,5638
95.92,5591
96,5310
96.08,4962
96.16,4901
96.24,4873
96.32,4879
96.4,4892
96.48,4720
96.56,4668
96.64,4754
96.72,4800
96.8,4731
96.88,4722
96.96,5049
97.04,5645
97.12,5754
97.2,5559
97.28,5205
97.36,5370
97.44,5208
97.52,5098
97.6,4969
97.68,4845
97.76,4695
97.84,4885
97.92,4909
98,4880
98.08,5003
98.16,5016
98.24,5404
98.32,5219
98.4,4943
98.48,4998
98.56,5081
98.64,4812
98.72,4788
98.8,4839
98.88,4977
98.96,4926
99.04,4821
99.12,4707
99.2,4921
99.28,4743
99.36,4771
99.44,4862
99.52,4804
99.6,4964
99.68,5071
99.76,4972
99.84,4894
99.92,5040
100,4969