File: data/xrd_icdd_PDF/00-073-0999 (PD3).csv
10.00836,361
10.07521,316
10.14205,380
10.2089,331
10.27574,350
10.34259,292
10.40943,312
10.47628,319
10.54312,305
10.60997,287
10.67681,312
10.74366,288
10.8105,301
10.87735,286
10.94419,295
11.01104,342
11.07788,293
11.14473,325
11.21157,307
11.27842,265
11.34526,340
11.41211,250
11.47895,273
11.5458,281
11.61264,244
11.67949,292
11.74633,269
11.81318,247
11.88002,234
11.94687,265
12.01371,274
12.08056,282
12.1474,213
12.21425,228
12.28109,214
12.34794,253
12.41478,248
12.48163,243
12.54847,204
12.61532,228
12.68216,248
12.74901,219
12.81585,187
12.8827,200
12.94954,222
13.01639,245
13.08323,214
13.15008,219
13.21692,225
13.28377,183
13.35061,226
13.41746,188
13.4843,188
13.55115,212
13.61799,220
13.68484,223
13.75168,192
13.81853,178
13.88537,172
13.95222,169
14.01906,215
14.08591,162
14.15275,199
14.2196,185
14.28645,204
14.35329,202
14.42014,196
14.48698,200
14.55383,216
14.62067,175
14.68752,189
14.75436,176
14.82121,173
14.88805,184
14.9549,213
15.02174,187
15.08859,183
15.15543,214
15.22228,172
15.28912,192
15.35597,186
15.42281,168
15.48966,213
15.5565,158
15.62335,161
15.69019,195
15.75704,189
15.82388,206
15.89073,190
15.95757,184
16.02442,157
16.09126,173
16.15811,205
16.22495,172
16.2918,191
16.35864,172
16.42549,180
16.49233,187
16.55918,175
16.62602,177
16.69287,177
16.75971,175
16.82656,142
16.8934,172
16.96025,190
17.02709,190
17.09394,195
17.16078,174
17.22763,174
17.29447,191
17.36132,184
17.42816,163
17.49501,180
17.56185,174
17.6287,169
17.69554,170
17.76239,174
17.82923,159
17.89608,171
17.96292,163
18.02977,162
18.09661,159
18.16346,175
18.2303,173
18.29715,171
18.364,173
18.43084,180
18.49769,173
18.56453,176
18.63138,180
18.69822,163
18.76507,165
18.83191,163
18.89876,157
18.9656,161
19.03245,164
19.09929,169
19.16614,150
19.23298,170
19.29983,168
19.36667,165
19.43352,151
19.50036,157
19.56721,183
19.63405,163
19.7009,167
19.76774,182
19.83459,162
19.90143,171
19.96828,171
20.03512,188
20.10197,174
20.16881,159
20.23566,161
20.3025,151
20.36935,187
20.43619,154
20.50304,132
20.56988,150
20.63673,150
20.70357,151
20.77042,162
20.83726,161
20.90411,161
20.97095,169
21.0378,170
21.10464,183
21.17149,144
21.23833,180
21.30518,165
21.37202,158
21.43887,162
21.50571,177
21.57256,178
21.6394,289
21.70625,612
21.77309,358
21.83994,165
21.90678,143
21.97363,161
22.04047,145
22.10732,148
22.17416,178
22.24101,172
22.30785,160
22.3747,144
22.44154,182
22.50839,146
22.57524,153
22.64208,172
22.70893,186
22.77577,162
22.84262,149
22.90946,163
22.97631,170
23.04315,144
23.11,153
23.17684,156
23.24369,163
23.31053,170
23.37738,161
23.44422,128
23.51107,140
23.57791,135
23.64476,165
23.7116,145
23.77845,146
23.84529,175
23.91214,149
23.97898,161
24.04583,149
24.11267,161
24.17952,150
24.24636,218
24.31321,284
24.38005,203
24.4469,168
24.51374,165
24.58059,149
24.64743,180
24.71428,168
24.78112,170
24.84797,157
24.91481,177
24.98166,162
25.0485,129
25.11535,149
25.18219,130
25.24904,157
25.31588,169
25.38273,190
25.44957,132
25.51642,147
25.58326,161
25.65011,150
25.71695,171
25.7838,146
25.85064,182
25.91749,177
25.98433,165
26.05118,136
26.11802,158
26.18487,150
26.25171,155
26.31856,145
26.3854,153
26.45225,135
26.51909,155
26.58594,159
26.65279,150
26.71963,172
26.78648,151
26.85332,153
26.92017,158
26.98701,150
27.05386,158
27.1207,121
27.18755,159
27.25439,159
27.32124,190
27.38808,177
27.45493,167
27.52177,143
27.58862,164
27.65546,158
27.72231,165
27.78915,180
27.856,208
27.92284,161
27.98969,169
28.05653,192
28.12338,141
28.19022,161
28.25707,159
28.32391,137
28.39076,162
28.4576,140
28.52445,159
28.59129,156
28.65814,170
28.72498,151
28.79183,184
28.85867,146
28.92552,186
28.99236,162
29.05921,134
29.12605,154
29.1929,137
29.25974,129
29.32659,169
29.39343,144
29.46028,151
29.52712,154
29.59397,142
29.66081,153
29.72766,161
29.7945,167
29.86135,216
29.92819,200
29.99504,210
30.06188,196
30.12873,197
30.19557,199
30.26242,217
30.32926,204
30.39611,216
30.46295,251
30.5298,319
30.59664,518
30.66349,768
30.73033,1918
30.79718,4564
30.86403,12271
30.93087,8387
30.99772,2978
31.06456,982
31.13141,511
31.19825,336
31.2651,295
31.33194,288
31.39879,236
31.46563,219
31.53248,218
31.59932,196
31.66617,192
31.73301,210
31.79986,223
31.8667,201
31.93355,216
32.00039,209
32.06724,198
32.13408,205
32.20093,184
32.26777,175
32.33462,172
32.40146,197
32.46831,183
32.53515,173
32.602,201
32.66884,203
32.73569,203
32.80253,208
32.86938,168
32.93622,169
33.00307,190
33.06991,160
33.13676,164
33.2036,161
33.27045,185
33.33729,153
33.40414,178
33.47098,195
33.53783,171
33.60467,189
33.67152,170
33.73836,180
33.80521,170
33.87205,150
33.9389,156
34.00574,184
34.07259,147
34.13943,140
34.20628,153
34.27312,164
34.33997,159
34.40681,168
34.47366,151
34.5405,164
34.60735,185
34.67419,178
34.74104,180
34.80788,156
34.87473,162
34.94157,163
35.00842,178
35.07527,157
35.14211,158
35.20896,159
35.2758,162
35.34265,142
35.40949,164
35.47634,145
35.54318,173
35.61003,156
35.67687,142
35.74372,140
35.81056,146
35.87741,161
35.94425,157
36.0111,173
36.07794,149
36.14479,171
36.21163,174
36.27848,185
36.34532,300
36.41217,282
36.47901,258
36.54586,181
36.6127,175
36.67955,149
36.74639,150
36.81324,168
36.88008,167
36.94693,159
37.01377,182
37.08062,214
37.14746,192
37.21431,194
37.28115,150
37.348,144
37.41484,132
37.48169,162
37.54853,154
37.61538,145
37.68222,186
37.74907,170
37.81591,165
37.88276,165
37.9496,264
38.01645,226
38.08329,301
38.15014,231
38.21698,178
38.28383,163
38.35067,149
38.41752,145
38.48436,167
38.55121,140
38.61805,157
38.6849,164
38.75174,147
38.81859,155
38.88543,140
38.95228,129
39.01912,140
39.08597,146
39.15282,125
39.21966,146
39.28651,151
39.35335,134
39.4202,158
39.48704,167
39.55389,162
39.62073,190
39.68758,198
39.75442,178
39.82127,162
39.88811,155
39.95496,158
40.0218,139
40.08865,147
40.15549,140
40.22234,142
40.28918,153
40.35603,157
40.42287,162
40.48972,155
40.55656,147
40.62341,127
40.69025,144
40.7571,151
40.82394,161
40.89079,151
40.95763,161
41.02448,142
41.09132,180
41.15817,188
41.22501,194
41.29186,197
41.3587,128
41.42555,147
41.49239,137
41.55924,133
41.62608,151
41.69293,147
41.75977,135
41.82662,146
41.89346,137
41.96031,144
42.02715,153
42.094,162
42.16084,161
42.22769,176
42.29453,131
42.36138,144
42.42822,140
42.49507,153
42.56191,157
42.62876,151
42.6956,163
42.76245,160
42.82929,146
42.89614,168
42.96298,168
43.02983,141
43.09667,160
43.16352,130
43.23036,163
43.29721,167
43.36406,175
43.4309,125
43.49775,135
43.56459,159
43.63144,164
43.69828,184
43.76513,183
43.83197,196
43.89882,268
43.96566,281
44.03251,383
44.09935,894
44.1662,3294
44.23304,2379
44.29989,2050
44.36673,841
44.43358,366
44.50042,231
44.56727,189
44.63411,175
44.70096,180
44.7678,165
44.83465,177
44.90149,164
44.96834,159
45.03518,143
45.10203,155
45.16887,178
45.23572,148
45.30256,154
45.36941,145
45.43625,194
45.5031,162
45.56994,237
45.63679,236
45.70363,194
45.77048,184
45.83732,157
45.90417,148
45.97101,137
46.03786,143
46.1047,159
46.17155,147
46.23839,165
46.30524,143
46.37208,145
46.43893,136
46.50577,163
46.57262,142
46.63946,153
46.70631,126
46.77315,144
46.84,162
46.90684,135
46.97369,140
47.04053,153
47.10738,129
47.17422,159
47.24107,157
47.30791,122
47.37476,156
47.44161,142
47.50845,156
47.5753,148
47.64214,139
47.70899,150
47.77583,144
47.84268,141
47.90952,153
47.97637,160
48.04321,135
48.11006,159
48.1769,165
48.24375,173
48.31059,160
48.37744,180
48.44428,162
48.51113,197
48.57797,168
48.64482,145
48.71166,130
48.77851,128
48.84535,160
48.9122,142
48.97904,131
49.04589,119
49.11273,161
49.17958,167
49.24642,171
49.31327,147
49.38011,155
49.44696,146
49.5138,149
49.58065,203
49.64749,225
49.71434,270
49.78118,202
49.84803,215
49.91487,181
49.98172,153
50.04856,129
50.11541,133
50.18225,137
50.2491,164
50.31594,156
50.38279,141
50.44963,150
50.51648,144
50.58332,168
50.65017,131
50.71701,157
50.78386,157
50.8507,183
50.91755,248
50.98439,186
51.05124,237
51.11808,190
51.18493,158
51.25177,151
51.31862,142
51.38546,154
51.45231,125
51.51915,159
51.586,136
51.65285,132
51.71969,148
51.78654,143
51.85338,150
51.92023,161
51.98707,126
52.05392,161
52.12076,153
52.18761,170
52.25445,133
52.3213,153
52.38814,156
52.45499,164
52.52183,121
52.58868,122
52.65552,134
52.72237,144
52.78921,143
52.85606,158
52.9229,150
52.98975,168
53.05659,146
53.12344,159
53.19028,169
53.25713,150
53.32397,150
53.39082,155
53.45766,176
53.52451,154
53.59135,174
53.6582,163
53.72504,167
53.79189,153
53.85873,153
53.92558,145
53.99242,149
54.05927,150
54.12611,141
54.19296,158
54.2598,160
54.32665,172
54.39349,181
54.46034,253
54.52718,282
54.59403,383
54.66087,654
54.72772,1655
54.79456,1819
54.86141,2260
54.92825,2894
54.9951,1601
55.06194,1485
55.12879,796
55.19563,399
55.26248,272
55.32932,220
55.39617,204
55.46301,188
55.52986,165
55.5967,186
55.66355,149
55.73039,158
55.79724,147
55.86409,165
55.93093,165
55.99778,178
56.06462,171
56.13147,154
56.19831,170
56.26516,183
56.332,158
56.39885,160
56.46569,141
56.53254,146
56.59938,155
56.66623,130
56.73307,155
56.79992,131
56.86676,133
56.93361,142
57.00045,133
57.0673,135
57.13414,156
57.20099,162
57.26783,175
57.33468,165
57.40152,151
57.46837,165
57.53521,170
57.60206,151
57.6689,145
57.73575,139
57.80259,171
57.86944,158
57.93628,143
58.00313,161
58.06997,165
58.13682,125
58.20366,158
58.27051,156
58.33735,141
58.4042,158
58.47104,163
58.53789,150
58.60473,145
58.67158,150
58.73842,144
58.80527,157
58.87211,136
58.93896,149
59.0058,121
59.07265,145
59.13949,149
59.20634,145
59.27318,163
59.34003,137
59.40687,144
59.47372,118
59.54056,113
59.60741,130
59.67425,153
59.7411,142
59.80794,155
59.87479,156
59.94164,145
60.00848,123
60.07533,131
60.14217,153
60.20902,129
60.27586,144
60.34271,131
60.40955,142
60.4764,170
60.54324,164
60.61009,146
60.67693,165
60.74378,192
60.81062,170
60.87747,159
60.94431,149
61.01116,158
61.078,146
61.14485,143
61.21169,162
61.27854,129
61.34538,153
61.41223,116
61.47907,121
61.54592,131
61.61276,117
61.67961,137
61.74645,158
61.8133,128
61.88014,145
61.94699,139
62.01383,156
62.08068,151
62.14752,157
62.21437,137
62.28121,137
62.34806,153
62.4149,135
62.48175,133
62.54859,153
62.61544,149
62.68228,136
62.74913,126
62.81597,130
62.88282,162
62.94966,137
63.01651,145
63.08335,155
63.1502,151
63.21704,132
63.28389,144
63.35073,147
63.41758,149
63.48442,134
63.55127,131
63.61811,128
63.68496,157
63.7518,187
63.81865,168
63.88549,187
63.95234,223
64.01918,362
64.08603,411
64.15288,491
64.21972,1014
64.28657,1007
64.35341,745
64.42026,780
64.4871,557
64.55395,396
64.62079,278
64.68764,187
64.75448,188
64.82133,171
64.88817,136
64.95502,145
65.02186,167
65.08871,142
65.15555,160
65.2224,163
65.28924,141
65.35609,146
65.42293,150
65.48978,128
65.55662,137
65.62347,144
65.69031,133
65.75716,150
65.824,143
65.89085,150
65.95769,151
66.02454,147
66.09138,144
66.15823,136
66.22507,126
66.29192,143
66.35876,126
66.42561,146
66.49245,159
66.5593,129
66.62614,145
66.69299,129
66.75983,134
66.82668,149
66.89352,133
66.96037,145
67.02721,158
67.09406,161
67.1609,133
67.22775,143
67.29459,121
67.36144,153
67.42828,147
67.49513,133
67.56197,151
67.62882,168
67.69566,153
67.76251,153
67.82935,146
67.8962,145
67.96304,132
68.02989,134
68.09673,153
68.16358,128
68.23043,156
68.29727,139
68.36412,163
68.43096,156
68.49781,120
68.56465,160
68.6315,176
68.69834,159
68.76519,168
68.83203,137
68.89888,148
68.96572,158
69.03257,149
69.09941,145
69.16626,156
69.2331,137
69.29995,132
69.36679,136
69.43364,132
69.50048,131
69.56733,145
69.63417,128
69.70102,153
69.76786,139
69.83471,135
69.90155,141
69.9684,130
70.03524,149
70.10209,141
70.16893,153
70.23578,133
70.30262,144
70.36947,157
70.43631,151
70.50316,126
70.57,122
70.63685,135
70.70369,156
70.77054,123
70.83738,141
70.90423,143
70.97107,173
71.03792,136
71.10476,135
71.17161,153
71.23845,145
71.3053,136
71.37214,135
71.43899,161
71.50583,142
71.57268,134
71.63952,133
71.70637,157
71.77321,108
71.84006,143
71.9069,132
71.97375,149
72.04059,141
72.10744,137
72.17428,141
72.24113,148
72.30797,133
72.37482,155
72.44167,167
72.50851,165
72.57536,156
72.6422,197
72.70905,252
72.77589,375
72.84274,515
72.90958,703
72.97643,1041
73.04327,766
73.11012,589
73.17696,603
73.24381,441
73.31065,279
73.3775,218
73.44434,178
73.51119,174
73.57803,151
73.64488,149
73.71172,158
73.77857,129
73.84541,181
73.91226,167
73.9791,182
74.04595,183
74.11279,167
74.17964,160
74.24648,158
74.31333,155
74.38017,139
74.44702,129
74.51386,139
74.58071,117
74.64755,127
74.7144,148
74.78124,115
74.84809,135
74.91493,131
74.98178,148
75.04862,133
75.11547,122
75.18231,109
75.24916,158
75.316,126
75.38285,146
75.44969,151
75.51654,149
75.58338,128
75.65023,105
75.71707,135
75.78392,144
75.85076,134
75.91761,157
75.98445,127
76.0513,132
76.11814,146
76.18499,159
76.25183,160
76.31868,139
76.38552,140
76.45237,121
76.51921,140
76.58606,145
76.65291,144
76.71975,132
76.7866,133
76.85344,141
76.92029,128
76.98713,131
77.05398,121
77.12082,145
77.18767,139
77.25451,137
77.32136,134
77.3882,147
77.45505,140
77.52189,115
77.58874,132
77.65558,126
77.72243,131
77.78927,144
77.85612,114
77.92296,144
77.98981,137
78.05665,146
78.1235,174
78.19034,182
78.25719,161
78.32403,149
78.39088,161
78.45772,153
78.52457,148
78.59141,132
78.65826,137
78.7251,135
78.79195,140
78.85879,146
78.92564,141
78.99248,113
79.05933,129
79.12617,126
79.19302,117
79.25986,144
79.32671,111
79.39355,130
79.4604,145
79.52724,148
79.59409,144
79.66093,133
79.72778,131
79.79462,147
79.86147,125
79.92831,141
79.99516,118
80.062,115
80.12885,137
80.19569,132
80.26254,131
80.32938,158
80.39623,147
80.46307,134
80.52992,127
80.59676,131
80.66361,154
80.73046,125
80.7973,134
80.86415,144
80.93099,171
80.99784,192
81.06468,254
81.13153,297
81.19837,216
81.26522,239
81.33206,307
81.39891,324
81.46575,242
81.5326,197
81.59944,225
81.66629,204
81.73313,203
81.79998,158
81.86682,141
81.93367,122
82.00051,135
82.06736,148
82.1342,148
82.20105,158
82.26789,151
82.33474,171
82.40158,150
82.46843,141
82.53527,153
82.60212,141
82.66896,140
82.73581,139
82.80265,102
82.8695,134
82.93634,127
83.00319,136
83.07003,129
83.13688,145
83.20372,117
83.27057,161
83.33741,122
83.40426,145
83.4711,144
83.53795,141
83.60479,130
83.67164,113
83.73848,130
83.80533,128
83.87217,134
83.93902,134
84.00586,115
84.07271,120
84.13955,121
84.2064,173
84.27324,146
84.34009,147
84.40693,148
84.47378,137
84.54062,146
84.60747,120
84.67431,130
84.74116,132
84.808,160
84.87485,136
84.9417,129
85.00854,135
85.07539,135
85.14223,128
85.20908,144
85.27592,129
85.34277,143
85.40961,150
85.47646,113
85.5433,139
85.61015,147
85.67699,127
85.74384,128
85.81068,136
85.87753,132
85.94437,127
86.01122,151
86.07806,160
86.14491,178
86.21175,156
86.2786,150
86.34544,154
86.41229,134
86.47913,144
86.54598,132
86.61282,128
86.67967,139
86.74651,162
86.81336,139
86.8802,127
86.94705,125
87.01389,131
87.08074,130
87.14758,142
87.21443,158
87.28127,122
87.34812,131
87.41496,121
87.48181,148
87.54865,114
87.6155,128
87.68234,132
87.74919,139
87.81603,141
87.88288,126
87.94972,116
88.01657,134
88.08341,134
88.15026,125
88.2171,154
88.28395,160
88.35079,163
88.41764,144
88.48448,147
88.55133,132
88.61817,147
88.68502,125
88.75186,135
88.81871,144
88.88555,188
88.9524,194
89.01925,206
89.08609,267
89.15294,374
89.21978,454
89.28663,545
89.35347,631
89.42032,727
89.48716,833
89.55401,683
89.62085,646
89.6877,499
89.75454,464
89.82139,437
89.88823,321
89.95508,253
90.00521,209