File: data/xrd_icdd_PDF/00-063-0313 (PD3).csv
5,1102
5.08,860
5.16,926
5.24,887
5.32,815
5.4,815
5.48,733
5.56,793
5.64,782
5.72,639
5.8,694
5.88,639
5.96,722
6.04,771
6.12,661
6.2,650
6.28,683
6.36,634
6.44,601
6.52,562
6.6,551
6.68,573
6.76,595
6.84,573
6.92,628
7,540
7.08,518
7.16,534
7.24,474
7.32,496
7.4,507
7.48,485
7.56,512
7.64,452
7.72,474
7.8,419
7.88,463
7.96,386
8.04,452
8.12,419
8.2,430
8.28,441
8.36,368
8.44,419
8.52,408
8.6,430
8.68,375
8.76,402
8.84,408
8.92,380
9,364
9.08,331
9.16,369
9.24,331
9.32,340
9.4,380
9.48,320
9.56,364
9.64,364
9.72,309
9.8,353
9.88,386
9.96,331
10.04,307
10.12,358
10.2,298
10.28,342
10.36,306
10.44,331
10.52,342
10.6,334
10.68,304
10.76,264
10.84,298
10.92,276
11,298
11.08,276
11.16,298
11.24,298
11.32,220
11.4,253
11.48,287
11.56,276
11.64,260
11.72,264
11.8,270
11.88,315
11.96,276
12.04,226
12.12,242
12.2,260
12.28,237
12.36,309
12.44,264
12.52,231
12.6,231
12.68,264
12.76,231
12.84,220
12.92,231
13,226
13.08,242
13.16,193
13.24,215
13.32,242
13.4,176
13.48,204
13.56,187
13.64,231
13.72,259
13.8,198
13.88,242
13.96,209
14.04,253
14.12,220
14.2,209
14.28,248
14.36,198
14.44,187
14.52,204
14.6,209
14.68,220
14.76,176
14.84,193
14.92,165
15,204
15.08,204
15.16,187
15.24,198
15.32,149
15.4,226
15.48,149
15.56,209
15.64,220
15.72,187
15.8,198
15.88,176
15.96,171
16.04,143
16.12,220
16.2,149
16.28,165
16.36,187
16.44,176
16.52,143
16.6,209
16.68,165
16.76,209
16.84,154
16.92,154
17,198
17.08,187
17.16,204
17.24,165
17.32,176
17.4,143
17.48,220
17.56,154
17.64,198
17.72,176
17.8,154
17.88,165
17.96,198
18.04,209
18.12,132
18.2,149
18.28,182
18.36,132
18.44,176
18.52,176
18.6,160
18.68,143
18.76,187
18.84,165
18.92,149
19,198
19.08,198
19.16,154
19.24,143
19.32,182
19.4,160
19.48,171
19.56,110
19.64,132
19.72,143
19.8,121
19.88,138
19.96,143
20.04,121
20.12,132
20.2,132
20.28,187
20.36,110
20.44,165
20.52,160
20.6,231
20.68,154
20.76,187
20.84,132
20.92,198
21,143
21.08,121
21.16,176
21.24,121
21.32,138
21.4,143
21.48,176
21.56,138
21.64,121
21.72,176
21.8,121
21.88,154
21.96,165
22.04,110
22.12,121
22.2,171
22.28,160
22.36,160
22.44,110
22.52,105
22.6,116
22.68,143
22.76,154
22.84,198
22.92,121
23,193
23.08,121
23.16,149
23.24,143
23.32,143
23.4,127
23.48,182
23.56,154
23.64,149
23.72,154
23.8,176
23.88,165
23.96,149
24.04,143
24.12,165
24.2,187
24.28,165
24.36,171
24.44,242
24.52,276
24.6,430
24.68,771
24.76,738
24.84,490
24.92,204
25,176
25.08,160
25.16,176
25.24,165
25.32,165
25.4,165
25.48,149
25.56,198
25.64,198
25.72,143
25.8,143
25.88,154
25.96,165
26.04,154
26.12,176
26.2,160
26.28,165
26.36,160
26.44,165
26.52,143
26.6,143
26.68,127
26.76,198
26.84,176
26.92,209
27,143
27.08,220
27.16,198
27.24,198
27.32,220
27.4,253
27.48,303
27.56,507
27.64,1030
27.72,1647
27.8,1565
27.88,793
27.96,353
28.04,364
28.12,253
28.2,292
28.28,225
28.36,209
28.44,215
28.52,205
28.6,218
28.68,292
28.76,250
28.84,176
28.92,183
29,153
29.08,170
29.16,203
29.24,172
29.32,171
29.4,248
29.48,367
29.56,551
29.64,700
29.72,1300
29.8,1609
29.88,1047
29.96,562
30.04,298
30.12,242
30.2,242
30.28,220
30.36,242
30.44,242
30.52,259
30.6,264
30.68,253
30.76,276
30.84,342
30.92,446
31,584
31.08,771
31.16,832
31.24,606
31.32,584
31.4,430
31.48,292
31.56,266
31.64,252
31.72,221
31.8,173
31.88,224
31.96,411
32.04,809
32.12,813
32.2,507
32.28,285
32.36,345
32.44,380
32.52,322
32.6,516
32.68,790
32.76,625
32.84,283
32.92,323
33,501
33.08,606
33.16,1130
33.24,1703
33.32,1485
33.4,1519
33.48,1379
33.56,857
33.64,432
33.72,529
33.8,446
33.88,419
33.96,347
34.04,342
34.12,424
34.2,452
34.28,551
34.36,716
34.44,1074
34.52,1036
34.6,970
34.68,1190
34.76,1614
34.84,2893
34.92,4805
35,7235
35.08,9224
35.16,11152
35.24,7714
35.32,4166
35.4,2468
35.48,1576
35.56,959
35.64,613
35.72,438
35.8,363
35.88,602
35.96,928
36.04,708
36.12,427
36.2,337
36.28,337
36.36,307
36.44,230
36.52,206
36.6,230
36.68,241
36.76,207
36.84,187
36.92,190
37,386
37.08,562
37.16,771
37.24,1135
37.32,1201
37.4,1300
37.48,992
37.56,716
37.64,738
37.72,959
37.8,1631
37.88,1906
37.96,1256
38.04,920
38.12,898
38.2,1400
38.28,2948
38.36,3207
38.44,2044
38.52,849
38.6,485
38.68,364
38.76,485
38.84,419
38.92,446
39,380
39.08,287
39.16,286
39.24,182
39.32,240
39.4,204
39.48,220
39.56,220
39.64,231
39.72,220
39.8,132
39.88,193
39.96,176
40.04,182
40.12,194
40.2,209
40.28,143
40.36,198
40.44,176
40.52,160
40.6,231
40.68,165
40.76,209
40.84,198
40.92,276
41,397
41.08,441
41.16,430
41.24,375
41.32,364
41.4,353
41.48,270
41.56,276
41.64,253
41.72,276
41.8,364
41.88,424
41.96,419
42.04,264
42.12,165
42.2,176
42.28,176
42.36,220
42.44,209
42.52,209
42.6,276
42.68,408
42.76,408
42.84,424
42.92,342
43,242
43.08,242
43.16,231
43.24,209
43.32,298
43.4,320
43.48,287
43.56,220
43.64,220
43.72,165
43.8,220
43.88,143
43.96,220
44.04,209
44.12,320
44.2,231
44.28,198
44.36,176
44.44,154
44.52,176
44.6,187
44.68,165
44.76,154
44.84,187
44.92,138
45,209
45.08,198
45.16,220
45.24,165
45.32,198
45.4,198
45.48,215
45.56,264
45.64,336
45.72,413
45.8,325
45.88,231
45.96,298
46.04,187
46.12,226
46.2,193
46.28,253
46.36,248
46.44,276
46.52,320
46.6,287
46.68,204
46.76,154
46.84,132
46.92,198
47,231
47.08,231
47.16,198
47.24,209
47.32,176
47.4,220
47.48,143
47.56,187
47.64,215
47.72,165
47.8,182
47.88,198
47.96,176
48.04,193
48.12,209
48.2,309
48.28,369
48.36,347
48.44,298
48.52,303
48.6,253
48.68,237
48.76,287
48.84,314
48.92,331
49,441
49.08,430
49.16,419
49.24,452
49.32,386
49.4,276
49.48,276
49.56,250
49.64,284
49.72,331
49.8,395
49.88,548
49.96,521
50.04,468
50.12,432
50.2,343
50.28,384
50.36,705
50.44,1230
50.52,1418
50.6,1311
50.68,1020
50.76,716
50.84,452
50.92,397
51,336
51.08,320
51.16,430
51.24,501
51.32,479
51.4,386
51.48,248
51.56,248
51.64,209
51.72,187
51.8,187
51.88,270
51.96,248
52.04,375
52.12,298
52.2,320
52.28,231
52.36,220
52.44,187
52.52,215
52.6,248
52.68,198
52.76,204
52.84,165
52.92,198
53,204
53.08,215
53.16,253
53.24,353
53.32,364
53.4,529
53.48,419
53.56,320
53.64,248
53.72,256
53.8,292
53.88,220
53.96,288
54.04,254
54.12,271
54.2,286
54.28,217
54.36,270
54.44,255
54.52,274
54.6,236
54.68,269
54.76,279
54.84,298
54.92,242
55,276
55.08,309
55.16,342
55.24,496
55.32,573
55.4,639
55.48,639
55.56,694
55.64,733
55.72,601
55.8,490
55.88,501
55.96,386
56.04,353
56.12,364
56.2,474
56.28,584
56.36,507
56.44,518
56.52,496
56.6,452
56.68,523
56.76,628
56.84,782
56.92,1108
57,1234
57.08,1014
57.16,849
57.24,518
57.32,375
57.4,380
57.48,474
57.56,364
57.64,270
57.72,287
57.8,331
57.88,298
57.96,336
58.04,287
58.12,298
58.2,452
58.28,457
58.36,386
58.44,419
58.52,380
58.6,325
58.68,320
58.76,430
58.84,463
58.92,430
59,391
59.08,331
59.16,397
59.24,419
59.32,551
59.4,700
59.48,843
59.56,854
59.64,860
59.72,557
59.8,463
59.88,336
59.96,309
60.04,276
60.12,231
60.2,209
60.28,204
60.36,242
60.44,292
60.52,242
60.6,231
60.68,215
60.76,270
60.84,253
60.92,303
61,309
61.08,375
61.16,397
61.24,375
61.32,441
61.4,485
61.48,430
61.56,452
61.64,386
61.72,358
61.8,336
61.88,364
61.96,413
62.04,364
62.12,446
62.2,562
62.28,623
62.36,705
62.44,749
62.52,749
62.6,738
62.68,937
62.76,959
62.84,937
62.92,788
63,678
63.08,430
63.16,419
63.24,463
63.32,501
63.4,534
63.48,507
63.56,358
63.64,358
63.72,413
63.8,331
63.88,408
63.96,397
64.04,485
64.12,595
64.2,893
64.28,904
64.36,860
64.44,793
64.52,634
64.6,562
64.68,562
64.76,479
64.84,452
64.92,375
65,441
65.08,331
65.16,353
65.24,391
65.32,408
65.4,364
65.48,292
65.56,320
65.64,231
65.72,270
65.8,242
65.88,209
65.96,253
66.04,220
66.12,264
66.2,242
66.28,231
66.36,309
66.44,320
66.52,353
66.6,369
66.68,408
66.76,540
66.84,661
66.92,810
67,782
67.08,959
67.16,1091
67.24,771
67.32,766
67.4,727
67.48,579
67.56,474
67.64,353
67.72,314
67.8,331
67.88,264
67.96,242
68.04,231
68.12,198
68.2,209
68.28,242
68.36,209
68.44,215
68.52,237
68.6,209
68.68,226
68.76,215
68.84,242
68.92,253
69,264
69.08,276
69.16,397
69.24,441
69.32,325
69.4,309
69.48,298
69.56,276
69.64,264
69.72,331
69.8,397
69.88,419
69.96,490
70.04,562
70.12,595
70.2,551
70.28,545
70.36,606
70.44,760
70.52,860
70.6,683
70.68,551
70.76,529
70.84,463
70.92,325
71,331
71.08,342
71.16,259
71.24,276
71.32,270
71.4,220
71.48,209
71.56,253
71.64,264
71.72,264
71.8,375
71.88,375
71.96,364
72.04,358
72.12,452
72.2,430
72.28,667
72.36,804
72.44,694
72.52,700
72.6,694
72.68,672
72.76,650
72.84,810
72.92,727
73,634
73.08,551
73.16,479
73.24,474
73.32,413
73.4,364
73.48,380
73.56,397
73.64,463
73.72,452
73.8,441
73.88,424
73.96,573
74.04,606
74.12,793
74.2,1003
74.28,948
74.36,782
74.44,705
74.52,479
74.6,342
74.68,298
74.76,242
74.84,287
74.92,248
75,276
75.08,270
75.16,215
75.24,193
75.32,264
75.4,226
75.48,193
75.56,220
75.64,204
75.72,171
75.8,220
75.88,215
75.96,226
76.04,264
76.12,253
76.2,331
76.28,501
76.36,419
76.44,408
76.52,364
76.6,331
76.68,264
76.76,209
76.84,204
76.92,198
77,176
77.08,198
77.16,209
77.24,209
77.32,198
77.4,193
77.48,198
77.56,209
77.64,176
77.72,187
77.8,154
77.88,149
77.96,182
78.04,209
78.12,182
78.2,209
78.28,193
78.36,187
78.44,242
78.52,198
78.6,204
78.68,215
78.76,226
78.84,287
78.92,231
79,270
79.08,342
79.16,353
79.24,364
79.32,419
79.4,452
79.48,490
79.56,364
79.64,342
79.72,336
79.8,325
79.88,253
79.96,242
80.04,209
80.12,242
80.2,215
80.28,242
80.36,209
80.44,176
80.52,276
80.6,270
80.68,248
80.76,204
80.84,220
80.92,253
81,242
81.08,253
81.16,298
81.24,320
81.32,281
81.4,242
81.48,287
81.56,264
81.64,264
81.72,287
81.8,292
81.88,253
81.96,253
82.04,253
82.12,264
82.2,209
82.28,220
82.36,193
82.44,231
82.52,220
82.6,242
82.68,264
82.76,276
82.84,253
82.92,314
83,220
83.08,287
83.16,242
83.24,253
83.32,281
83.4,287
83.48,303
83.56,287
83.64,298
83.72,314
83.8,287
83.88,309
83.96,309
84.04,347
84.12,320
84.2,369
84.28,386
84.36,419
84.44,408
84.52,463
84.6,518
84.68,496
84.76,496
84.84,430
84.92,430
85,364
85.08,287
85.16,325
85.24,281
85.32,320
85.4,276
85.48,342
85.56,264
85.64,298
85.72,253
85.8,253
85.88,287
85.96,270
86.04,331
86.12,264
86.2,259
86.28,287
86.36,292
86.44,242
86.52,253
86.6,292
86.68,364
86.76,364
86.84,369
86.92,320
87,287
87.08,303
87.16,281
87.24,309
87.32,270
87.4,309
87.48,298
87.56,358
87.64,364
87.72,435
87.8,380
87.88,386
87.96,364
88.04,419
88.12,375
88.2,419
88.28,496
88.36,573
88.44,584
88.52,474
88.6,424
88.68,375
88.76,353
88.84,386
88.92,264
89,231
89.08,231
89.16,253
89.24,231
89.32,253
89.4,270
89.48,331
89.56,287
89.64,320
89.72,424
89.8,419
89.88,386
89.96,446
90.04,386
90.12,402
90.2,397
90.28,353
90.36,342
90.44,253
90.52,253
90.6,242
90.68,270
90.76,176
90.84,198
90.92,276
91,264
91.08,309
91.16,320
91.24,248
91.32,347
91.4,276
91.48,253
91.56,276
91.64,259
91.72,209
91.8,248
91.88,231
91.96,242
92.04,231
92.12,220
92.2,231
92.28,276
92.36,281
92.44,231
92.52,298
92.6,298
92.68,342
92.76,331
92.84,353
92.92,375
93,364
93.08,353
93.16,364
93.24,342
93.32,408
93.4,375
93.48,419
93.56,413
93.64,397
93.72,320
93.8,386
93.88,309
93.96,287
94.04,253
94.12,264
94.2,276
94.28,237
94.36,298
94.44,309
94.52,353
94.6,375
94.68,364
94.76,430
94.84,413
94.92,430
95,391
95.08,358
95.16,336
95.24,303
95.32,292
95.4,287
95.48,364
95.56,298
95.64,259
95.72,276
95.8,259
95.88,242
95.96,253
96.04,248
96.12,309
96.2,325
96.28,413
96.36,430
96.44,408
96.52,347
96.6,375
96.68,347
96.76,342
96.84,353
96.92,353
97,353
97.08,353
97.16,347
97.24,309
97.32,276
97.4,287
97.48,276
97.56,276
97.64,287
97.72,331
97.8,298
97.88,309
97.96,287
98.04,270
98.12,342
98.2,281
98.28,397
98.36,419
98.44,430
98.52,424
98.6,413
98.68,468
98.76,424
98.84,441
98.92,386
99,375
99.08,397
99.16,408
99.24,353
99.32,380
99.4,408
99.48,419
99.56,452
99.64,441
99.72,518
99.8,529
99.88,523
99.96,457
100.04,485
100.12,529
100.2,562
100.28,419
100.36,353
100.44,386
100.52,353
100.6,364
100.68,364
100.76,375
100.84,342
100.92,303
101,303
101.08,320
101.16,298
101.24,353
101.32,375
101.4,364
101.48,441
101.56,397
101.64,364
101.72,430
101.8,452
101.88,452
101.96,386
102.04,408
102.12,375
102.2,342
102.28,331
102.36,292
102.44,231
102.52,242
102.6,226
102.68,237
102.76,264
102.84,231
102.92,242
103,220
103.08,237
103.16,198
103.24,259
103.32,253
103.4,287
103.48,215
103.56,209
103.64,226
103.72,242
103.8,220
103.88,242
103.96,287
104.04,242
104.12,259
104.2,303
104.28,264
104.36,276
104.44,264
104.52,298
104.6,320
104.68,314
104.76,342
104.84,298
104.92,364
105,358
105.08,375
105.16,364
105.24,342
105.32,331
105.4,364
105.48,386
105.56,397
105.64,430
105.72,485
105.8,435
105.88,474
105.96,397
106.04,375
106.12,331
106.2,331
106.28,298
106.36,353
106.44,264
106.52,231
106.6,248
106.68,270
106.76,303
106.84,226
106.92,287
107,204
107.08,215
107.16,287
107.24,292
107.32,220
107.4,253
107.48,264
107.56,287
107.64,276
107.72,231
107.8,226
107.88,231
107.96,270
108.04,270
108.12,242
108.2,281
108.28,287
108.36,314
108.44,375
108.52,287
108.6,276
108.68,320
108.76,264
108.84,276
108.92,287
109,325
109.08,231
109.16,253
109.24,298
109.32,303
109.4,220
109.48,298
109.56,264
109.64,276
109.72,287
109.8,264
109.88,220
109.96,292
110.04,347
110.12,287
110.2,331
110.28,358
110.36,364
110.44,331
110.52,353
110.6,364
110.68,331
110.76,386
110.84,336
110.92,430
111,512
111.08,490
111.16,518
111.24,386
111.32,474
111.4,463
111.48,413
111.56,419
111.64,441
111.72,408
111.8,353
111.88,402
111.96,441
112.04,369
112.12,375
112.2,397
112.28,507
112.36,386
112.44,435
112.52,441
112.6,397
112.68,408
112.76,397
112.84,375
112.92,397
113,314
113.08,347
113.16,298
113.24,325
113.32,342
113.4,364
113.48,325
113.56,314
113.64,253
113.72,259
113.8,298
113.88,303
113.96,281
114.04,270
114.12,276
114.2,309
114.28,325
114.36,342
114.44,314
114.52,325
114.6,353
114.68,276
114.76,342
114.84,298
114.92,287
115,309
115.08,209
115.16,292
115.24,226
115.32,253
115.4,231
115.48,231
115.56,264
115.64,231
115.72,248
115.8,242
115.88,242
115.96,231
116.04,198
116.12,242
116.2,248
116.28,264
116.36,270
116.44,281
116.52,248
116.6,353
116.68,331
116.76,298
116.84,320
116.92,303
117,298
117.08,342
117.16,320
117.24,375
117.32,336
117.4,320
117.48,375
117.56,325
117.64,342
117.72,342
117.8,364
117.88,364
117.96,325
118.04,342
118.12,386
118.2,320
118.28,441
118.36,408
118.44,375
118.52,369
118.6,347
118.68,364
118.76,314
118.84,353
118.92,259
119,331
119.08,320
119.16,292
119.24,264
119.32,242
119.4,298
119.48,242
119.56,287
119.64,287
119.72,320
119.8,264
119.88,320
119.96,264
120.02,353