File: data/xrd_icdd_PDF/00-060-0760 (PD3).csv
5.0066,858
5.0976,767
5.1886,646
5.2796,547
5.3706,544
5.4616,455
5.5526,428
5.6436,405
5.7346,381
5.8256,358
5.9166,347
6.0076,349
6.0986,332
6.1896,339
6.2806,383
6.3716,374
6.4626,409
6.5536,400
6.6446,463
6.7356,457
6.8266,501
6.9176,533
7.0086,522
7.0996,521
7.1906,500
7.2816,429
7.3726,413
7.4636,362
7.5546,272
7.6456,206
7.7366,189
7.8276,159
7.9186,147
8.0096,130
8.1006,108
8.1916,104
8.2826,110
8.3736,79
8.4646,91
8.5556,79
8.6466,86
8.7376,78
8.8286,60
8.9196,62
9.0106,69
9.1016,67
9.1926,62
9.2836,61
9.3746,60
9.4656,64
9.5566,66
9.6476,68
9.7386,54
9.8296,68
9.9206,54
10.0116,55
10.1026,63
10.1936,73
10.2846,71
10.3756,63
10.4666,63
10.5576,66
10.6486,61
10.7396,58
10.8306,62
10.9216,60
11.0126,56
11.1036,65
11.1946,59
11.2856,61
11.3766,79
11.4676,74
11.5586,60
11.6496,67
11.7406,76
11.8316,72
11.9226,76
12.0136,66
12.1046,73
12.1956,60
12.2866,69
12.3776,66
12.4686,53
12.5596,64
12.6506,72
12.7416,70
12.8326,73
12.9236,63
13.0146,63
13.1056,76
13.1966,66
13.2876,60
13.3786,70
13.4696,80
13.5606,71
13.6516,82
13.7426,78
13.8336,61
13.9246,86
14.0156,73
14.1066,85
14.1976,73
14.2886,84
14.3796,87
14.4706,78
14.5616,77
14.6526,92
14.7436,96
14.8346,87
14.9256,97
15.0166,87
15.1076,74
15.1986,76
15.2896,88
15.3806,91
15.4716,90
15.5626,97
15.6536,87
15.7446,91
15.8356,104
15.9266,93
16.0176,97
16.1086,121
16.1996,266
16.2906,125
16.3816,108
16.4726,98
16.5636,116
16.6546,113
16.7456,100
16.8366,95
16.9276,104
17.0186,91
17.1096,105
17.2006,109
17.2916,204
17.3826,108
17.4736,86
17.5646,94
17.6556,89
17.7466,89
17.8376,75
17.9286,76
18.0196,84
18.1106,70
18.2016,100
18.2926,138
18.3836,303
18.4746,124
18.5656,94
18.6566,97
18.7476,90
18.8386,78
18.9296,76
19.0206,83
19.1116,73
19.2026,84
19.2936,71
19.3846,81
19.4756,83
19.5666,66
19.6576,88
19.7486,92
19.8396,86
19.9306,82
20.0216,83
20.1126,85
20.2036,85
20.2946,89
20.3856,85
20.4766,86
20.5676,96
20.6586,73
20.7496,85
20.8406,71
20.9316,91
21.0226,76
21.1136,93
21.2046,84
21.2956,83
21.3866,86
21.4776,80
21.5686,87
21.6596,82
21.7506,86
21.8416,83
21.9326,84
22.0236,77
22.1146,73
22.2056,84
22.2966,74
22.3876,93
22.4786,90
22.5696,92
22.6606,93
22.7516,88
22.8426,91
22.9336,81
23.0246,87
23.1156,108
23.2066,101
23.2976,83
23.3886,87
23.4796,87
23.5706,96
23.6616,132
23.7526,269
23.8436,235
23.9346,94
24.0256,94
24.1166,94
24.2076,82
24.2986,90
24.3896,93
24.4806,89
24.5716,111
24.6626,87
24.7536,93
24.8446,106
24.9356,98
25.0266,88
25.1176,90
25.2086,85
25.2996,105
25.3906,87
25.4816,111
25.5726,107
25.6636,91
25.7546,100
25.8456,83
25.9366,103
26.0276,114
26.1186,102
26.2096,96
26.3006,93
26.3916,87
26.4826,86
26.5736,94
26.6646,86
26.7556,100
26.8466,86
26.9376,87
27.0286,103
27.1196,95
27.2106,100
27.3016,105
27.3926,95
27.4836,115
27.5746,101
27.6656,91
27.7566,118
27.8476,115
27.9386,124
28.0296,138
28.1206,213
28.2116,1132
28.3026,1159
28.3936,235
28.4846,142
28.5756,110
28.6666,100
28.7576,87
28.8486,85
28.9396,103
29.0306,120
29.1216,99
29.2126,104
29.3036,95
29.3946,103
29.4856,107
29.5766,113
29.6676,107
29.7586,115
29.8496,126
29.9406,91
30.0316,136
30.1226,111
30.2136,121
30.3046,98
30.3956,107
30.4866,116
30.5776,155
30.6686,200
30.7596,634
30.8506,2789
30.9416,1279
31.0326,263
31.1236,135
31.2146,115
31.3056,109
31.3966,107
31.4876,101
31.5786,99
31.6696,96
31.7606,107
31.8516,105
31.9426,116
32.0336,112
32.1246,101
32.2156,108
32.3066,105
32.3976,116
32.4886,129
32.5796,227
32.6706,281
32.7616,311
32.8526,180
32.9436,133
33.0346,159
33.1256,302
33.2166,550
33.3076,2874
33.3986,1647
33.4896,299
33.5806,197
33.6716,169
33.7626,228
33.8536,833
33.9446,1609
34.0356,708
34.1266,188
34.2176,134
34.3086,125
34.3996,102
34.4906,107
34.5816,101
34.6726,108
34.7636,102
34.8546,115
34.9456,230
35.0366,283
35.1276,173
35.2186,114
35.3096,85
35.4006,90
35.4916,100
35.5826,101
35.6736,92
35.7646,98
35.8556,89
35.9466,80
36.0376,90
36.1286,86
36.2196,83
36.3106,98
36.4016,75
36.4926,82
36.5836,83
36.6746,94
36.7656,96
36.8566,106
36.9476,97
37.0386,91
37.1296,101
37.2206,149
37.3116,122
37.4026,94
37.4936,89
37.5846,89
37.6756,84
37.7666,106
37.8576,99
37.9486,85
38.0396,97
38.1306,99
38.2216,92
38.3126,82
38.4036,99
38.4946,96
38.5856,95
38.6766,119
38.7676,194
38.8586,160
38.9496,118
39.0406,88
39.1316,103
39.2226,93
39.3136,96
39.4046,89
39.4956,79
39.5866,81
39.6776,95
39.7686,97
39.8596,87
39.9506,93
40.0416,80
40.1326,87
40.2236,79
40.3146,92
40.4056,93
40.4966,85
40.5876,101
40.6786,128
40.7696,117
40.8606,95
40.9516,83
41.0426,89
41.1336,81
41.2246,83
41.3156,93
41.4066,100
41.4976,108
41.5886,71
41.6796,81
41.7706,72
41.8616,81
41.9526,76
42.0436,82
42.1346,91
42.2256,109
42.3166,240
42.4076,187
42.4986,103
42.5896,107
42.6806,82
42.7716,100
42.8626,87
42.9536,92
43.0446,90
43.1356,94
43.2266,101
43.3176,91
43.4086,106
43.4996,99
43.5906,110
43.6816,88
43.7726,97
43.8636,102
43.9546,100
44.0456,94
44.1366,98
44.2276,74
44.3186,95
44.4096,94
44.5006,96
44.5916,83
44.6826,133
44.7736,106
44.8646,102
44.9556,96
45.0466,85
45.1376,95
45.2286,84
45.3196,88
45.4106,83
45.5016,92
45.5926,91
45.6836,93
45.7746,106
45.8656,89
45.9566,89
46.0476,87
46.1386,89
46.2296,86
46.3206,99
46.4116,102
46.5026,86
46.5936,95
46.6846,90
46.7756,88
46.8666,106
46.9576,101
47.0486,116
47.1396,98
47.2306,133
47.3216,355
47.4126,281
47.5036,212
47.5946,119
47.6856,107
47.7766,102
47.8676,104
47.9586,93
48.0496,84
48.1406,99
48.2316,100
48.3226,88
48.4136,106
48.5046,81
48.5956,111
48.6866,117
48.7776,116
48.8686,96
48.9596,94
49.0506,102
49.1416,95
49.2326,94
49.3236,101
49.4146,91
49.5056,91
49.5966,95
49.6876,99
49.7786,109
49.8696,111
49.9606,260
50.0516,241
50.1426,236
50.2336,111
50.3246,107
50.4156,93
50.5066,103
50.5976,95
50.6886,75
50.7796,92
50.8706,101
50.9616,110
51.0526,81
51.1436,110
51.2346,104
51.3256,107
51.4166,127
51.5076,143
51.5986,437
51.6896,704
51.7806,535
51.8716,211
51.9626,125
52.0536,108
52.1446,106
52.2356,91
52.3266,112
52.4176,93
52.5086,110
52.5996,104
52.6906,94
52.7816,103
52.8726,102
52.9636,106
53.0546,106
53.1456,132
53.2366,230
53.3276,626
53.4186,351
53.5096,222
53.6006,204
53.6916,165
53.7826,158
53.8736,120
53.9646,113
54.0556,110
54.1466,99
54.2376,107
54.3286,108
54.4196,104
54.5106,99
54.6016,109
54.6926,81
54.7836,96
54.8746,96
54.9656,98
55.0566,89
55.1476,101
55.2386,99
55.3296,107
55.4206,107
55.5116,110
55.6026,96
55.6936,109
55.7846,129
55.8756,141
55.9666,310
56.0576,839
56.1486,415
56.2396,305
56.3306,164
56.4216,190
56.5126,117
56.6036,130
56.6946,113
56.7856,120
56.8766,93
56.9676,101
57.0586,118
57.1496,119
57.2406,207
57.3316,131
57.4226,126
57.5136,103
57.6046,100
57.6956,101
57.7866,99
57.8776,94
57.9686,101
58.0596,100
58.1506,119
58.2416,111
58.3326,216
58.4236,812
58.5146,368
58.6056,425
58.6966,164
58.7876,126
58.8786,110
58.9696,103
59.0606,87
59.1516,95
59.2426,103
59.3336,97
59.4246,104
59.5156,93
59.6066,135
59.6976,101
59.7886,115
59.8796,94
59.9706,110
60.0616,100
60.1526,99
60.2436,93
60.3346,98
60.4256,98
60.5166,90
60.6076,86
60.6986,95
60.7896,87
60.8806,86
60.9716,103
61.0626,102
61.1536,94
61.2446,101
61.3356,105
61.4266,112
61.5176,96
61.6086,101
61.6996,103
61.7906,110
61.8816,110
61.9726,92
62.0636,89
62.1546,87
62.2456,91
62.3366,79
62.4276,82
62.5186,89
62.6096,101
62.7006,87
62.7916,83
62.8826,97
62.9736,89
63.0646,96
63.1556,101
63.2466,102
63.3376,80
63.4286,92
63.5196,90
63.6106,99
63.7016,103
63.7926,116
63.8836,187
63.9746,203
64.0656,155
64.1566,196
64.2476,381
64.3386,176
64.4296,240
64.5206,125
64.6116,112
64.7026,111
64.7936,99
64.8846,90
64.9756,97
65.0666,87
65.1576,93
65.2486,102
65.3396,102
65.4306,82
65.5216,92
65.6126,90
65.7036,112
65.7946,94
65.8856,102
65.9766,125
66.0676,117
66.1586,101
66.2496,112
66.3406,93
66.4316,105
66.5226,101
66.6136,71
66.7046,77
66.7956,94
66.8866,95
66.9776,94
67.0686,89
67.1596,95
67.2506,118
67.3416,119
67.4326,146
67.5236,397
67.6146,198
67.7056,239
67.7966,136
67.8876,105
67.9786,95
68.0696,104
68.1606,104
68.2516,95
68.3426,95
68.4336,98
68.5246,106
68.6156,116
68.7066,114
68.7976,111
68.8886,94
68.9796,101
69.0706,88
69.1616,102
69.2526,147
69.3436,167
69.4346,128
69.5256,157
69.6166,122
69.7076,97
69.7986,103
69.8896,122
69.9806,191
70.0716,123
70.1626,140
70.2536,89
70.3446,93
70.4356,85
70.5266,102
70.6176,105
70.7086,95
70.7996,101
70.8906,82
70.9816,86
71.0726,86
71.1636,93
71.2546,100
71.3456,99
71.4366,96
71.5276,102
71.6186,144
71.7096,111
71.8006,133
71.8916,98
71.9826,98
72.0736,105
72.1646,96
72.2556,97
72.3466,115
72.4376,105
72.5286,96
72.6196,100
72.7106,86
72.8016,101
72.8926,107
72.9836,105
73.0746,104
73.1656,86
73.2566,99
73.3476,90
73.4386,76
73.5296,89
73.6206,98
73.7116,88
73.8026,101
73.8936,96
73.9846,91
74.0756,89
74.1666,94
74.2576,91
74.3486,92
74.4396,80
74.5306,98
74.6216,99
74.7126,112
74.8036,96
74.8946,106
74.9856,100
75.0766,80
75.1676,87
75.2586,92
75.3496,85
75.4406,98
75.5316,91
75.6226,102
75.7136,108
75.8046,100
75.8956,98
75.9866,99
76.0776,94
76.1686,94
76.2596,122
76.3506,141
76.4416,130
76.5326,136
76.6236,103
76.7146,102
76.8056,97
76.8966,99
76.9876,102
77.0786,94
77.1696,99
77.2606,109
77.3516,97
77.4426,106
77.5336,109
77.6246,104
77.7156,93
77.8066,93
77.8976,102
77.9886,98
78.0796,93
78.1706,91
78.2616,90
78.3526,139
78.4436,132
78.5346,113
78.6256,136
78.7166,100
78.8076,109
78.8986,96
78.9896,100
79.0806,102
79.1716,92
79.2626,90
79.3536,107
79.4446,110
79.5356,110
79.6266,97
79.7176,102
79.8086,96
79.8996,96
79.9906,94
80.0816,91
80.1726,105
80.2636,121
80.3546,156
80.4456,189
80.5366,147
80.6276,152
80.7186,125
80.8096,123
80.9006,152
80.9916,161
81.0826,112
81.1736,143
81.2646,100
81.3556,107
81.4466,109
81.5376,102
81.6286,130
81.7196,255
81.8106,159
81.9016,137
81.9926,177
82.0836,121
82.1746,97
82.2656,101
82.3566,102
82.4476,90
82.5386,107
82.6296,103
82.7206,89
82.8116,111
82.9026,120
82.9936,174
83.0846,234
83.1756,159
83.2666,247
83.3576,222
83.4486,124
83.5396,144
83.6306,120
83.7216,123
83.8126,101
83.9036,106
83.9946,94
84.0856,102
84.1766,86
84.2676,89
84.3586,101
84.4496,96
84.5406,102
84.6316,87
84.7226,109
84.8136,104
84.9046,97
84.9956,101
85.0866,90
85.1776,122
85.2686,205
85.3596,177
85.4506,134
85.5416,177
85.6326,153
85.7236,101
85.8146,111
85.9056,99
85.9966,107
86.0876,91
86.1786,102
86.2696,105
86.3606,100
86.4516,90
86.5426,100
86.6336,108
86.7246,98
86.8156,86
86.9066,94
86.9976,95
87.0886,98
87.1796,110
87.2706,95
87.3616,102
87.4526,118
87.5436,116
87.6346,97
87.7256,98
87.8166,104
87.9076,92
87.9986,93
88.0896,101
88.1806,98
88.2716,104
88.3626,109
88.4536,77
88.5446,86
88.6356,93
88.7266,94
88.8176,88
88.9086,78
88.9996,85
89.0906,85
89.1816,88
89.2726,82
89.3636,92
89.4546,94
89.5456,94
89.6366,88
89.7276,99
89.8186,88
89.9096,107
90.0006,112
90.0916,184
90.1826,125
90.2736,99
90.3646,127
90.4556,109
90.5466,96
90.6376,95
90.7286,93
90.8196,99
90.9106,108
91.0016,87
91.0926,104
91.1836,96
91.2746,88
91.3656,87
91.4566,75
91.5476,99
91.6386,88
91.7296,84
91.8206,101
91.9116,104
92.0026,115
92.0936,130
92.1846,122
92.2756,117
92.3666,152
92.4576,158
92.5486,122
92.6396,96
92.7306,135
92.8216,83
92.9126,120
93.0036,94
93.0946,105
93.1856,80
93.2766,102
93.3676,86
93.4586,90
93.5496,94
93.6406,95
93.7316,101
93.8226,95
93.9136,106
94.0046,109
94.0956,122
94.1866,119
94.2776,107
94.3686,96
94.4596,119
94.5506,128
94.6416,124
94.7326,114
94.8236,112
94.9146,123
95.0056,118
95.0966,87
95.1876,98
95.2786,102
95.3696,119
95.4606,135
95.5516,117
95.6426,102
95.7336,114
95.8246,103
95.9156,92
96.0066,93
96.0976,103
96.1886,100
96.2796,114
96.3706,107
96.4616,112
96.5526,103
96.6436,104
96.7346,140
96.8256,120
96.9166,118
97.0076,141
97.0986,180
97.1896,126
97.2806,113
97.3716,125
97.4626,107
97.5536,102
97.6446,92
97.7356,96
97.8266,92
97.9176,108
98.0086,106
98.0996,87
98.1906,100
98.2816,90
98.3726,94
98.4636,95
98.5546,100
98.6456,91
98.7366,97
98.8276,103
98.9186,98
99.0096,91
99.1006,86
99.1916,93
99.2826,123
99.3736,106
99.4646,104
99.5556,98
99.6466,102
99.7376,104
99.8286,106
99.9196,113
100.0106,109
100.1016,112
100.1926,109
100.2836,94
100.3746,91
100.4656,104
100.5566,104
100.6476,77
100.7386,98
100.8296,95
100.9206,85
101.0116,102
101.1026,124
101.1936,112
101.2846,105
101.3756,86
101.4666,103
101.5576,130
101.6486,105
101.7396,117
101.8306,93
101.9216,100
102.0126,110
102.1036,84
102.1946,111
102.2856,96
102.3766,117
102.4676,102
102.5586,102
102.6496,84
102.7406,102
102.8316,106
102.9226,94
103.0136,95
103.1046,96
103.1956,85
103.2866,116
103.3776,92
103.4686,96
103.5596,97
103.6506,100
103.7416,113
103.8326,128
103.9236,134
104.0146,99
104.1056,115
104.1966,97
104.2876,114
104.3786,99
104.4696,103
104.5606,93
104.6516,94
104.7426,92
104.8336,98
104.9246,101
105.0156,88
105.1066,97
105.1976,108
105.2886,99
105.3796,93
105.4706,98
105.5616,102
105.6526,98
105.7436,83
105.8346,97
105.9256,108
106.0166,106
106.1076,99
106.1986,93
106.2896,96
106.3806,115
106.4716,105
106.5626,103
106.6536,115
106.7446,101
106.8356,126
106.9266,97
107.0176,93
107.1086,110
107.1996,116
107.2906,84
107.3816,92
107.4726,97
107.5636,108
107.6546,101
107.7456,98
107.8366,97
107.9276,121
108.0186,111
108.1096,92
108.2006,95
108.2916,94
108.3826,111
108.4736,106
108.5646,105
108.6556,102
108.7466,100
108.8376,93
108.9286,100
109.0196,104
109.1106,93
109.2016,105
109.2926,115
109.3836,127
109.4746,133
109.5656,120
109.6566,115
109.7476,103
109.8386,135
109.9296,93
110.0206,96
110.1116,91
110.2026,93
110.2936,87
110.3846,92
110.4756,106
110.5666,99
110.6576,101
110.7486,103
110.8396,106
110.9306,94
111.0216,110
111.1126,108
111.2036,103
111.2946,83
111.3856,90
111.4766,106
111.5676,95
111.6586,100
111.7496,90
111.8406,96
111.9316,98
112.0226,101
112.1136,87
112.2046,92
112.2956,107
112.3866,90
112.4776,105
112.5686,97
112.6596,90
112.7506,104
112.8416,100
112.9326,103
113.0236,97
113.1146,133
113.2056,196
113.2966,189
113.3876,134
113.4786,126
113.5696,131
113.6606,150
113.7516,116
113.8426,97
113.9336,103
114.0246,129
114.1156,115
114.2066,117
114.2976,111
114.3886,109
114.4796,104
114.5706,113
114.6616,105
114.7526,109
114.8436,94
114.9346,100
115.0256,108
115.1166,119
115.2076,92
115.2986,122
115.3896,152
115.4806,159
115.5716,149
115.6626,135
115.7536,117
115.8446,133
115.9356,130
116.0266,121
116.1176,114
116.2086,115
116.2996,96
116.3906,102
116.4816,86
116.5726,97
116.6636,93
116.7546,113
116.8456,113
116.9366,107
117.0276,103
117.1186,96
117.2096,102
117.3006,100
117.3916,96
117.4826,103
117.5736,116
117.6646,79
117.7556,96
117.8466,96
117.9376,105
118.0286,98
118.1196,105
118.2106,93
118.3016,98
118.3926,124
118.4836,123
118.5746,135
118.6656,119
118.7566,118
118.8476,94
118.9386,117
119.0296,107
119.1206,120
119.2116,110
119.3026,100
119.3936,106
119.4846,108
119.5756,111
119.6666,114
119.7576,95
119.8486,114
119.9396,95
120.0306,98
120.1216,103
120.2126,121
120.3036,116
120.3946,117
120.4856,107
120.5766,122
120.6676,101
120.7586,108
120.8496,124
120.9406,132
121.0316,120
121.1226,112
121.2136,148
121.3046,144
121.3956,125
121.4866,118
121.5776,126
121.6686,157
121.7596,173
121.8506,155
121.9416,122
122.0326,121
122.1236,119
122.2146,117
122.3056,127
122.3966,125
122.4876,116
122.5786,106
122.6696,108
122.7606,122
122.8516,133
122.9426,109
123.0336,107
123.1246,99
123.2156,126
123.3066,131
123.3976,124
123.4886,113
123.5796,114
123.6706,139
123.7616,133
123.8526,167
123.9436,169
124.0346,122
124.1256,115
124.2166,87
124.3076,118
124.3986,131
124.4896,122
124.5806,121
124.6716,122
124.7626,144
124.8536,154
124.9446,131
125.0356,119
125.1266,110
125.2176,108
125.3086,123
125.3996,132
125.4906,126
125.5816,114
125.6726,112
125.7636,108
125.8546,100
125.9456,107
126.0366,112
126.1276,107
126.2186,122
126.3096,124
126.4006,163
126.4916,139
126.5826,130
126.6736,111
126.7646,107
126.8556,127
126.9466,116
127.0376,118
127.1286,128
127.2196,127
127.3106,136
127.4016,150
127.4926,126
127.5836,124
127.6746,123
127.7656,111
127.8566,126
127.9476,121
128.0386,119
128.1296,104
128.2206,114
128.3116,111
128.4026,105
128.4936,104
128.5846,101
128.6756,115
128.7666,109
128.8576,113
128.9486,116
129.0396,89
129.1306,116
129.2216,109
129.3126,113
129.4036,96
129.4946,116
129.5856,116
129.6766,114
129.7676,115
129.8586,120
129.9496,96
130.0406,114
130.1316,123
130.2226,142
130.3136,138
130.4046,110
130.4956,117
130.5866,130
130.6776,131
130.7686,120
130.8596,115
130.9506,126
131.0416,124
131.1326,112
131.2236,112
131.3146,109
131.4056,118
131.4966,124
131.5876,102
131.6786,111
131.7696,124
131.8606,100
131.9516,114
132.0426,131
132.1336,117
132.2246,121
132.3156,114
132.4066,110
132.4976,122
132.5886,107
132.6796,109
132.7706,125
132.8616,120
132.9526,100
133.0436,95
133.1346,105
133.2256,101
133.3166,87
133.4076,93
133.4986,117
133.5896,107
133.6806,106
133.7716,100
133.8626,106
133.9536,102
134.0446,104
134.1356,130
134.2266,123
134.3176,116
134.4086,103
134.4996,102
134.5906,113
134.6816,119
134.7726,108
134.8636,104
134.9546,103
135.0456,106
135.1366,107
135.2276,113
135.3186,113
135.4096,111
135.5006,108
135.5916,119
135.6826,126
135.7736,135
135.8646,125
135.9556,120
136.0466,115
136.1376,115
136.2286,94
136.3196,116
136.4106,117
136.5016,128
136.5926,100
136.6836,107
136.7746,114
136.8656,99
136.9566,96
137.0476,99
137.1386,100
137.2296,102
137.3206,96
137.4116,112
137.5026,101
137.5936,106
137.6846,109
137.7756,107
137.8666,99
137.9576,103
138.0486,116
138.1396,112
138.2306,117
138.3216,119
138.4126,115
138.5036,99
138.5946,108
138.6856,110
138.7766,133
138.8676,105
138.9586,123
139.0496,107
139.1406,101
139.2316,117
139.3226,111
139.4136,125
139.5046,116
139.5956,107
139.6866,104
139.7776,122
139.8686,118
139.9596,136
139.9986,139