File: data/xrd_icdd_PDF/00-059-0244 (PD3).csv
10,4967
10.08,4994
10.16,5001
10.24,4942
10.32,4955
10.4,5014
10.48,5027
10.56,5023
10.64,4867
10.72,4898
10.8,4863
10.88,4902
10.96,4810
11.04,4938
11.12,4818
11.2,4838
11.28,4822
11.36,5016
11.44,5237
11.52,5593
11.6,6357
11.68,5132
11.76,4522
11.84,4641
11.92,4539
12,4503
12.08,4508
12.16,4587
12.24,4425
12.32,4422
12.4,4392
12.48,4540
12.56,4447
12.64,4384
12.72,4178
12.8,4260
12.88,4280
12.96,4193
13.04,4178
13.12,4269
13.2,4214
13.28,4026
13.36,4111
13.44,4139
13.52,4081
13.6,3938
13.68,3934
13.76,4007
13.84,3947
13.92,3820
14,3873
14.08,3895
14.16,3885
14.24,3835
14.32,3728
14.4,3769
14.48,3738
14.56,3702
14.64,3765
14.72,3716
14.8,3737
14.88,3553
14.96,3682
15.04,3514
15.12,3561
15.2,3492
15.28,3619
15.36,3483
15.44,3675
15.52,3513
15.6,3584
15.68,3461
15.76,3455
15.84,3379
15.92,3431
16,3466
16.08,3402
16.16,3319
16.24,3421
16.32,3195
16.4,3282
16.48,3283
16.56,3355
16.64,3268
16.72,3308
16.8,3151
16.88,3308
16.96,3300
17.04,3230
17.12,3247
17.2,3219
17.28,3158
17.36,3213
17.44,3252
17.52,3238
17.6,3299
17.68,3579
17.76,3914
17.84,4531
17.92,5951
18,4498
18.08,3363
18.16,3194
18.24,3169
18.32,3091
18.4,3099
18.48,3090
18.56,2955
18.64,2923
18.72,2968
18.8,3006
18.88,2937
18.96,2901
19.04,2921
19.12,2978
19.2,2930
19.28,2917
19.36,2844
19.44,2867
19.52,2932
19.6,2804
19.68,2823
19.76,2839
19.84,2828
19.92,2786
20,2853
20.08,2826
20.16,2717
20.24,2881
20.32,2683
20.4,2808
20.48,2850
20.56,2790
20.64,2744
20.72,2781
20.8,2739
20.88,2764
20.96,2633
21.04,2704
21.12,2746
21.2,2730
21.28,2721
21.36,2795
21.44,2723
21.52,2642
21.6,2615
21.68,2706
21.76,2598
21.84,2662
21.92,2686
22,2571
22.08,2757
22.16,2715
22.24,2857
22.32,3037
22.4,3497
22.48,4538
22.56,5443
22.64,3376
22.72,2794
22.8,2763
22.88,2709
22.96,2559
23.04,2688
23.12,2858
23.2,3208
23.28,4032
23.36,3478
23.44,2724
23.52,2542
23.6,2600
23.68,2576
23.76,2556
23.84,2515
23.92,2431
24,2491
24.08,2381
24.16,2506
24.24,2491
24.32,2388
24.4,2414
24.48,2417
24.56,2416
24.64,2410
24.72,2416
24.8,2404
24.88,2421
24.96,2373
25.04,2439
25.12,2507
25.2,2384
25.28,2443
25.36,2388
25.44,2298
25.52,2356
25.6,2328
25.68,2439
25.76,2459
25.84,2438
25.92,2454
26,2521
26.08,2499
26.16,2614
26.24,3152
26.32,3962
26.4,6157
26.48,4927
26.56,2982
26.64,2532
26.72,2410
26.8,2384
26.88,2335
26.96,2447
27.04,2699
27.12,2854
27.2,2705
27.28,2866
27.36,3487
27.44,4108
27.52,3239
27.6,2627
27.68,2433
27.76,2431
27.84,2534
27.92,2940
28,3453
28.08,2924
28.16,2437
28.24,2304
28.32,2261
28.4,2228
28.48,2186
28.56,2229
28.64,2237
28.72,2302
28.8,2157
28.88,2191
28.96,2253
29.04,2240
29.12,2193
29.2,2290
29.28,2287
29.36,2307
29.44,2257
29.52,2294
29.6,2274
29.68,2249
29.76,2226
29.84,2157
29.92,2203
30,2193
30.08,2170
30.16,2201
30.24,2173
30.32,2195
30.4,2286
30.48,2157
30.56,2157
30.64,2277
30.72,2186
30.8,2189
30.88,2283
30.96,2488
31.04,2746
31.12,3593
31.2,5780
31.28,6626
31.36,4292
31.44,2694
31.52,2406
31.6,2253
31.68,2328
31.76,2188
31.84,2113
31.92,2115
32,2190
32.08,2274
32.16,2197
32.24,2201
32.32,2118
32.4,2265
32.48,2250
32.56,2175
32.64,2143
32.72,2200
32.8,2284
32.88,2187
32.96,2186
33.04,2192
33.12,2191
33.2,2180
33.28,2102
33.36,2220
33.44,2200
33.52,2174
33.6,2161
33.68,2185
33.76,2232
33.84,2253
33.92,2263
34,2283
34.08,2256
34.16,2249
34.24,2260
34.32,2234
34.4,2146
34.48,2257
34.56,2340
34.64,2269
34.72,2396
34.8,2368
34.88,2326
34.96,2482
35.04,2630
35.12,2710
35.2,3343
35.28,3400
35.36,3464
35.44,4106
35.52,5859
35.6,10369
35.68,20849
35.76,40338
35.84,29322
35.92,13676
36,6817
36.08,5520
36.16,6592
36.24,9615
36.32,9184
36.4,6810
36.48,5734
36.56,8250
36.64,16241
36.72,27322
36.8,17703
36.88,7365
36.96,4013
37.04,3360
37.12,2959
37.2,2796
37.28,2790
37.36,2638
37.44,2593
37.52,2813
37.6,2990
37.68,3527
37.76,4885
37.84,8621
37.92,17174
38,12658
38.08,6892
38.16,3741
38.24,3045
38.32,2812
38.4,2693
38.48,2605
38.56,2703
38.64,2571
38.72,2649
38.8,2541
38.88,2739
38.96,2856
39.04,3366
39.12,4534
39.2,7398
39.28,15992
39.36,17936
39.44,12885
39.52,9608
39.6,10324
39.68,7258
39.76,4103
39.84,3047
39.92,2675
40,2566
40.08,2320
40.16,2271
40.24,2262
40.32,2250
40.4,2289
40.48,2145
40.56,2203
40.64,2219
40.72,2275
40.8,2160
40.88,2251
40.96,2150
41.04,2134
41.12,2252
41.2,2118
41.28,2174
41.36,2098
41.44,2077
41.52,2110
41.6,2069
41.68,2148
41.76,2121
41.84,2137
41.92,2136
42,2155
42.08,2141
42.16,2122
42.24,2108
42.32,2119
42.4,2085
42.48,2056
42.56,2081
42.64,2167
42.72,2106
42.8,2159
42.88,2184
42.96,2226
43.04,2323
43.12,2455
43.2,2915
43.28,3988
43.36,5517
43.44,4665
43.52,3623
43.6,2777
43.68,2556
43.76,2442
43.84,2493
43.92,2583
44,2799
44.08,3395
44.16,4866
44.24,9422
44.32,17466
44.4,11741
44.48,7811
44.56,3699
44.64,2957
44.72,2794
44.8,2668
44.88,2657
44.96,2956
45.04,3828
45.12,6133
45.2,10001
45.28,7651
45.36,5457
45.44,3149
45.52,2631
45.6,2434
45.68,2362
45.76,2191
45.84,2152
45.92,2205
46,2118
46.08,2133
46.16,2061
46.24,1982
46.32,2211
46.4,2480
46.48,2313
46.56,2208
46.64,2007
46.72,1971
46.8,1918
46.88,1853
46.96,2053
47.04,2095
47.12,2268
47.2,2534
47.28,2302
47.36,2137
47.44,2130
47.52,2042
47.6,2117
47.68,2375
47.76,2642
47.84,2948
47.92,2816
48,2727
48.08,2770
48.16,3283
48.24,3503
48.32,3095
48.4,2642
48.48,2204
48.56,2012
48.64,1971
48.72,1995
48.8,1915
48.88,2032
48.96,1995
49.04,1953
49.12,2050
49.2,2233
49.28,2595
49.36,2778
49.44,2610
49.52,2392
49.6,2083
49.68,2197
49.76,2209
49.84,2073
49.92,2000
50,1982
50.08,1931
50.16,1939
50.24,1928
50.32,1990
50.4,2013
50.48,2059
50.56,2161
50.64,2502
50.72,2579
50.8,3067
50.88,3846
50.96,3556
51.04,3145
51.12,2497
51.2,2250
51.28,2044
51.36,2016
51.44,1997
51.52,1871
51.6,1911
51.68,1908
51.76,1850
51.84,1850
51.92,1874
52,1889
52.08,1871
52.16,1880
52.24,1843
52.32,1839
52.4,1867
52.48,1843
52.56,1914
52.64,2000
52.72,1993
52.8,2181
52.88,2512
52.96,2343
53.04,2187
53.12,2000
53.2,1942
53.28,1887
53.36,1927
53.44,1871
53.52,1834
53.6,1952
53.68,1888
53.76,1791
53.84,1846
53.92,1867
54,1889
54.08,1873
54.16,1895
54.24,1952
54.32,1930
54.4,1930
54.48,1900
54.56,1979
54.64,1923
54.72,1899
54.8,1872
54.88,1922
54.96,1904
55.04,1981
55.12,1905
55.2,1918
55.28,1995
55.36,2050
55.44,2176
55.52,2396
55.6,3027
55.68,3460
55.76,3692
55.84,3303
55.92,2875
56,2514
56.08,2185
56.16,2236
56.24,2320
56.32,2567
56.4,2793
56.48,3688
56.56,4710
56.64,4940
56.72,4652
56.8,3544
56.88,3049
56.96,2488
57.04,2206
57.12,2138
57.2,2094
57.28,1976
57.36,2047
57.44,1968
57.52,1963
57.6,2063
57.68,2062
57.76,2105
57.84,2245
57.92,2111
58,2202
58.08,2148
58.16,2120
58.24,2238
58.32,2342
58.4,2788
58.48,4103
58.56,4397
58.64,3670
58.72,3593
58.8,3126
58.88,3023
58.96,2662
59.04,2629
59.12,2283
59.2,2137
59.28,2259
59.36,2396
59.44,2727
59.52,3034
59.6,4411
59.68,6865
59.76,5580
59.84,5218
59.92,3904
60,2765
60.08,2388
60.16,2147
60.24,2118
60.32,2193
60.4,2140
60.48,2543
60.56,2828
60.64,2884
60.72,3123
60.8,2679
60.88,2517
60.96,2183
61.04,2053
61.12,1998
61.2,1880
61.28,2020
61.36,1978
61.44,2046
61.52,2170
61.6,2408
61.68,2406
61.76,2262
61.84,2215
61.92,2161
62,2290
62.08,2099
62.16,2114
62.24,2283
62.32,3102
62.4,3494
62.48,2801
62.56,2798
62.64,2311
62.72,2113
62.8,2124
62.88,1990
62.96,1932
63.04,1984
63.12,1945
63.2,1997
63.28,2083
63.36,2079
63.44,2104
63.52,2278
63.6,2481
63.68,3257
63.76,3458
63.84,2978
63.92,2885
64,2497
64.08,2356
64.16,2593
64.24,2902
64.32,2896
64.4,2773
64.48,2815
64.56,2978
64.64,3952
64.72,4850
64.8,3873
64.88,3987
64.96,3606
65.04,4112
65.12,5696
65.2,4788
65.28,4248
65.36,3832
65.44,2772
65.52,2439
65.6,2279
65.68,2174
65.76,2137
65.84,2134
65.92,2220
66,2463
66.08,3096
66.16,3119
66.24,2749
66.32,2705
66.4,2358
66.48,2124
66.56,2116
66.64,2008
66.72,1970
66.8,1950
66.88,2053
66.96,1978
67.04,2001
67.12,1998
67.2,1968
67.28,2051
67.36,2088
67.44,2190
67.52,2512
67.6,2737
67.68,2602
67.76,2524
67.84,2297
67.92,2186
68,2037
68.08,2064
68.16,1969
68.24,1970
68.32,1975
68.4,2053
68.48,2019
68.56,2013
68.64,1974
68.72,2083
68.8,2130
68.88,2037
68.96,2073
69.04,2090
69.12,2334
69.2,2704
69.28,3483
69.36,4087
69.44,3249
69.52,3211
69.6,2782
69.68,2332
69.76,2131
69.84,2079
69.92,2056
70,1952
70.08,1944
70.16,1924
70.24,1900
70.32,1896
70.4,1995
70.48,1961
70.56,1852
70.64,1926
70.72,2032
70.8,1958
70.88,2198
70.96,2197
71.04,2117
71.12,2173
71.2,2102
71.28,2074
71.36,2135
71.44,2152
71.52,2426
71.6,2941
71.68,4181
71.76,3851
71.84,3207
71.92,3376
72,2656
72.08,2321
72.16,2235
72.24,2004
72.32,2082
72.4,1969
72.48,1948
72.56,2021
72.64,1998
72.72,1995
72.8,2068
72.88,2043
72.96,2076
73.04,2100
73.12,2204
73.2,2421
73.28,2873
73.36,3958
73.44,3783
73.52,3231
73.6,3549
73.68,3481
73.76,3462
73.84,3357
73.92,3142
74,2782
74.08,2779
74.16,2485
74.24,2439
74.32,2644
74.4,3033
74.48,4063
74.56,4781
74.64,4834
74.72,4415
74.8,3699
74.88,3470
74.96,2753
75.04,2435
75.12,2367
75.2,2217
75.28,2206
75.36,2177
75.44,2142
75.52,2214
75.6,2305
75.68,2362
75.76,2632
75.84,3307
75.92,4579
76,3932
76.08,3573
76.16,3997
76.24,3272
76.32,3054
76.4,2886
76.48,3581
76.56,3509
76.64,2917
76.72,3031
76.8,2749
76.88,2494
76.96,2604
77.04,2460
77.12,2693
77.2,2657
77.28,2482
77.36,2428
77.44,2446
77.52,2371
77.6,2277
77.68,2212
77.76,2253
77.84,2229
77.92,2371
78,2756
78.08,3003
78.16,3428
78.24,3281
78.32,3392
78.4,3095
78.48,2606
78.56,2473
78.64,2258
78.72,2192
78.8,2145
78.88,1970
78.96,2072
79.04,1959
79.12,2021
79.2,2017
79.28,2118
79.36,2109
79.44,2261
79.52,2427
79.6,2873
79.68,3168
79.76,2641
79.84,2514
79.92,2597
80,2263
80.08,2046
80.16,2021
80.24,2066
80.32,2006
80.4,2004
80.48,1920
80.56,2024
80.64,1966
80.72,2035
80.8,2041
80.88,2073
80.96,2266
81.04,2558
81.12,2305
81.2,2260
81.28,2290
81.36,2183
81.44,1984
81.52,1927
81.6,1995
81.68,1997
81.76,1955
81.84,2049
81.92,1947
82,1941
82.08,2067
82.16,1961
82.24,2021
82.32,2012
82.4,1999
82.48,1955
82.56,1998
82.64,1916
82.72,2037
82.8,1958
82.88,1993
82.96,2099
83.04,2054
83.12,2099
83.2,2173
83.28,2546
83.36,2686
83.44,2495
83.52,2303
83.6,2469
83.68,2342
83.76,2220
83.84,2195
83.92,2126
84,2267
84.08,2369
84.16,2664
84.24,2786
84.32,2694
84.4,2538
84.48,2572
84.56,2580
84.64,2280
84.72,2260
84.8,2169
84.88,2086
84.96,2038
85.04,2089
85.12,1960
85.2,2042
85.28,1984
85.36,2012
85.44,1964
85.52,1962
85.6,1988
85.68,1939
85.76,1912
85.84,1946
85.92,2027
86,2033
86.08,2139
86.16,2138
86.24,2130
86.32,2251
86.4,2583
86.48,2790
86.56,2516
86.64,2372
86.72,2330
86.8,2213
86.88,2007
86.96,2034
87.04,2009
87.12,1910
87.2,1941
87.28,1918
87.36,1907
87.44,1988
87.52,1959
87.6,1978
87.68,1894
87.76,1970
87.84,1951
87.92,2000
88,1918
88.08,1941
88.16,1889
88.24,1848
88.32,1931
88.4,1944
88.48,1935
88.56,1948
88.64,1934
88.72,1977
88.8,1962
88.88,2032
88.96,2088
89.04,2276
89.12,2549
89.2,2335
89.28,2183
89.36,2248
89.44,2309
89.52,2050
89.6,1881
89.68,2030
89.76,1940
89.84,1969
89.92,1992
90,1953
90.08,1944
90.16,1950
90.24,1932
90.32,2019
90.4,1917
90.48,2008
90.56,2076
90.64,2038
90.72,2008
90.8,2111
90.88,2069
90.96,2056
91.04,2126
91.12,2262
91.2,2201
91.28,2149
91.36,2337
91.44,2289
91.52,2142
91.6,2070
91.68,2012
91.76,2131
91.84,2011
91.92,1969
92,1947
92.08,1971
92.16,1976
92.24,2021
92.32,2039
92.4,2057
92.48,2205
92.56,2283
92.64,2193
92.72,2156
92.8,2201
92.88,2174
92.96,2178
93.04,2151
93.12,2045
93.2,2085
93.28,2243
93.36,2285
93.44,2094
93.52,2071
93.6,2135
93.68,2211
93.76,2098
93.84,2141
93.92,2085
94,2180
94.08,2043
94.16,2060
94.24,2073
94.32,2063
94.4,2095
94.48,2127
94.56,2204
94.64,2115
94.72,2169
94.8,2261
94.88,2401
94.96,2455
95.04,2378
95.12,2345
95.2,2393
95.28,2486
95.36,2381
95.44,2194
95.52,2271
95.6,2258
95.68,2101
95.76,2118
95.84,2026
95.92,2030
96,2037
96.08,2003
96.16,2060
96.24,2037
96.32,1973
96.4,1985
96.48,2083
96.56,2000
96.64,2057
96.72,1998
96.8,2074
96.88,1996
96.96,2076
97.04,2064
97.12,2146
97.2,2311
97.28,2490
97.36,2647
97.44,2724
97.52,2506
97.6,2782
97.68,3099
97.76,3456
97.84,3594
97.92,3438
98,3248
98.08,3392
98.16,3294
98.24,3052
98.32,2602
98.4,2618
98.48,2541
98.56,2258
98.64,2218
98.72,2157
98.8,2129
98.88,2158
98.96,2137
99.04,2216
99.12,2153
99.2,2159
99.28,2226
99.36,2406
99.44,2561
99.52,2576
99.6,2644
99.68,3025
99.76,3005
99.84,2665
99.92,2557
100,2596
100.08,2600
100.16,2407
100.24,2349
100.32,2186
100.4,2171
100.48,2175
100.56,2132
100.64,2156
100.72,2177
100.8,2149
100.88,2156
100.96,2092
101.04,2072
101.12,2013
101.2,2175
101.28,2029
101.36,2062
101.44,2138
101.52,2058
101.6,2051
101.68,2082
101.76,2005
101.84,2180
101.92,2308
102,2251
102.08,2481
102.16,2588
102.24,2460
102.32,2537
102.4,2735
102.48,2794
102.56,2498
102.64,2357
102.72,2353
102.8,2420
102.88,2191
102.96,2214
103.04,2090
103.12,2016
103.2,2165
103.28,2062
103.36,2130
103.44,2069
103.52,2079
103.6,2068
103.68,2193
103.76,2086
103.84,2287
103.92,2613
104,3040
104.08,2940
104.16,2749
104.24,2625
104.32,2842
104.4,3042
104.48,2789
104.56,2625
104.64,2644
104.72,2849
104.8,2840
104.88,2564
104.96,2397
105.04,2461
105.12,2491
105.2,2384
105.28,2230
105.36,2327
105.44,2364
105.52,2805
105.6,2879
105.68,2571
105.76,2320
105.84,2351
105.92,2487
106,2416
106.08,2262
106.16,2294
106.24,2253
106.32,2399
106.4,2556
106.48,2526
106.56,2383
106.64,2218
106.72,2440
106.8,2393
106.88,2459
106.96,2246
107.04,2431
107.12,2341
107.2,2370
107.28,2273
107.36,2392
107.44,2528
107.52,2664
107.6,2750
107.68,2764
107.76,2538
107.84,2579
107.92,2679
108,2648
108.08,2584
108.16,2401
108.24,2400
108.32,2406
108.4,2359
108.48,2230
108.56,2256
108.64,2198
108.72,2221
108.8,2193
108.88,2181
108.96,2326
109.04,2658
109.12,2636
109.2,2565
109.28,2639
109.36,2523
109.44,2578
109.52,2520
109.6,2413
109.68,2410
109.76,2327
109.84,2264
109.92,2273
110,2264
110.08,2323
110.16,2451
110.24,2662
110.32,2836
110.4,2885
110.48,2518
110.56,2461
110.64,2458
110.72,2486
110.8,2560
110.88,2290
110.96,2135
111.04,2154
111.12,2197
111.2,2076
111.28,2112
111.36,2101
111.44,2123
111.52,2118
111.6,2144
111.68,2051
111.76,2127
111.84,2206
111.92,2238
112,2360
112.08,2355
112.16,2303
112.24,2313
112.32,2292
112.4,2234
112.48,2275
112.56,2283
112.64,2336
112.72,2445
112.8,2488
112.88,2369
112.96,2216
113.04,2365
113.12,2333
113.2,2360
113.28,2213
113.36,2204
113.44,2234
113.52,2229
113.6,2190
113.68,2151
113.76,2127
113.84,2075
113.92,2238
114,2174
114.08,2237
114.16,2347
114.24,2350
114.32,2221
114.4,2173
114.48,2192
114.56,2212
114.64,2262
114.72,2111
114.8,2103
114.88,2143
114.96,2125
115.04,2021
115.12,2119
115.2,2165
115.28,2090
115.36,2175
115.44,2302
115.52,2563
115.6,2663
115.68,2526
115.76,2304
115.84,2281
115.92,2241
116,2395
116.08,2387
116.16,2339
116.24,2299
116.32,2165
116.4,2059
116.48,2089
116.56,2181
116.64,2126
116.72,2175
116.8,2182
116.88,2141
116.9,2161