File: data/xrd_icdd_PDF/00-060-0212 (PD3).csv
10,1525
10.08,1532
10.16,1487
10.24,1485
10.32,1476
10.4,1462
10.48,1477
10.56,1523
10.64,1509
10.72,1415
10.8,1454
10.88,1433
10.96,1416
11.04,1472
11.12,1440
11.2,1477
11.28,1467
11.36,1476
11.44,1466
11.52,1647
11.6,1860
11.68,2375
11.76,2046
11.84,1522
11.92,1462
12,1474
12.08,1398
12.16,1416
12.24,1371
12.32,1390
12.4,1400
12.48,1335
12.56,1359
12.64,1448
12.72,1440
12.8,1384
12.88,1401
12.96,1283
13.04,1376
13.12,1383
13.2,1355
13.28,1409
13.36,1380
13.44,1340
13.52,1353
13.6,1416
13.68,1319
13.76,1343
13.84,1306
13.92,1378
14,1424
14.08,1406
14.16,1359
14.24,1344
14.32,1319
14.4,1339
14.48,1409
14.56,1342
14.64,1355
14.72,1322
14.8,1333
14.88,1336
14.96,1367
15.04,1341
15.12,1356
15.2,1396
15.28,1367
15.36,1395
15.44,1348
15.52,1365
15.6,1343
15.68,1349
15.76,1301
15.84,1345
15.92,1428
16,1366
16.08,1287
16.16,1344
16.24,1363
16.32,1393
16.4,1324
16.48,1333
16.56,1380
16.64,1335
16.72,1384
16.8,1312
16.88,1374
16.96,1337
17.04,1352
17.12,1424
17.2,1396
17.28,1338
17.36,1356
17.44,1404
17.52,1370
17.6,1478
17.68,1585
17.76,1760
17.84,2347
17.92,2616
18,1783
18.08,1472
18.16,1422
18.24,1411
18.32,1423
18.4,1378
18.48,1313
18.56,1390
18.64,1367
18.72,1356
18.8,1404
18.88,1322
18.96,1326
19.04,1439
19.12,1324
19.2,1301
19.28,1310
19.36,1331
19.44,1353
19.52,1308
19.6,1309
19.68,1309
19.76,1315
19.84,1289
19.92,1293
20,1287
20.08,1325
20.16,1278
20.24,1331
20.32,1288
20.4,1236
20.48,1270
20.56,1322
20.64,1288
20.72,1262
20.8,1257
20.88,1263
20.96,1321
21.04,1258
21.12,1258
21.2,1337
21.28,1308
21.36,1328
21.44,1291
21.52,1270
21.6,1291
21.68,1245
21.76,1259
21.84,1277
21.92,1228
22,1260
22.08,1263
22.16,1227
22.24,1259
22.32,1315
22.4,1403
22.48,1486
22.56,1751
22.64,2671
22.72,2448
22.8,1549
22.88,1388
22.96,1343
23.04,1217
23.12,1258
23.2,1345
23.28,1331
23.36,1353
23.44,1509
23.52,1892
23.6,1724
23.68,1374
23.76,1311
23.84,1305
23.92,1277
24,1259
24.08,1265
24.16,1296
24.24,1293
24.32,1253
24.4,1295
24.48,1273
24.56,1344
24.64,1311
24.72,1235
24.8,1231
24.88,1231
24.96,1226
25.04,1282
25.12,1269
25.2,1190
25.28,1186
25.36,1293
25.44,1238
25.52,1267
25.6,1245
25.68,1274
25.76,1240
25.84,1271
25.92,1284
26,1299
26.08,1369
26.16,1361
26.24,1444
26.32,1703
26.4,2406
26.48,3439
26.56,2474
26.64,1590
26.72,1415
26.8,1317
26.88,1357
26.96,1415
27.04,1551
27.12,2126
27.2,2760
27.28,2182
27.36,1646
27.44,1450
27.52,1386
27.6,1345
27.68,1361
27.76,1348
27.84,1292
27.92,1341
28,1377
28.08,1457
28.16,1640
28.24,1824
28.32,1575
28.4,1399
28.48,1413
28.56,1340
28.64,1340
28.72,1312
28.8,1360
28.88,1318
28.96,1294
29.04,1253
29.12,1266
29.2,1303
29.28,1341
29.36,1377
29.44,1297
29.52,1359
29.6,1371
29.68,1394
29.76,1368
29.84,1317
29.92,1267
30,1333
30.08,1344
30.16,1354
30.24,1272
30.32,1316
30.4,1317
30.48,1292
30.56,1354
30.64,1315
30.72,1352
30.8,1351
30.88,1358
30.96,1387
31.04,1432
31.12,1488
31.2,1554
31.28,2200
31.36,3767
31.44,4109
31.52,2710
31.6,1745
31.68,1549
31.76,1431
31.84,1402
31.92,1391
32,1398
32.08,1360
32.16,1347
32.24,1319
32.32,1338
32.4,1368
32.48,1385
32.56,1338
32.64,1398
32.72,1311
32.8,1352
32.88,1365
32.96,1331
33.04,1349
33.12,1331
33.2,1320
33.28,1333
33.36,1413
33.44,1397
33.52,1393
33.6,1331
33.68,1355
33.76,1389
33.84,1333
33.92,1351
34,1353
34.08,1266
34.16,1329
34.24,1400
34.32,1360
34.4,1409
34.48,1405
34.56,1336
34.64,1404
34.72,1511
34.8,1625
34.88,1604
34.96,1635
35.04,1786
35.12,1855
35.2,1970
35.28,2323
35.36,2664
35.44,3816
35.52,6461
35.6,15128
35.68,27785
35.76,21008
35.84,10069
35.92,4821
36,3375
36.08,3169
36.16,4034
36.24,6249
36.32,5738
36.4,3939
36.48,2699
36.56,2316
36.64,2107
36.72,2322
36.8,2791
36.88,3871
36.96,7348
37.04,15901
37.12,13700
37.2,7780
37.28,3650
37.36,2557
37.44,2165
37.52,1957
37.6,1920
37.68,1825
37.76,1936
37.84,1980
37.92,2073
38,2275
38.08,2893
38.16,4910
38.24,10598
38.32,9026
38.4,5412
38.48,2816
38.56,2221
38.64,2101
38.72,1934
38.8,1883
38.88,1852
38.96,1908
39.04,1916
39.12,2083
39.2,2161
39.28,2456
39.36,2937
39.44,4376
39.52,8590
39.6,16013
39.68,12577
39.76,7439
39.84,3880
39.92,2646
40,2133
40.08,1979
40.16,1856
40.24,1765
40.32,1688
40.4,1655
40.48,1631
40.56,1571
40.64,1512
40.72,1520
40.8,1570
40.88,1554
40.96,1478
41.04,1516
41.12,1551
41.2,1503
41.28,1485
41.36,1495
41.44,1439
41.52,1500
41.6,1487
41.68,1535
41.76,1475
41.84,1532
41.92,1408
42,1494
42.08,1495
42.16,1486
42.24,1435
42.32,1509
42.4,1434
42.48,1464
42.56,1494
42.64,1607
42.72,1580
42.8,1705
42.88,1810
42.96,2313
43.04,3124
43.12,3079
43.2,2358
43.28,1904
43.36,1702
43.44,1613
43.52,1531
43.6,1639
43.68,1562
43.76,1597
43.84,1621
43.92,1613
44,1550
44.08,1678
44.16,1759
44.24,1832
44.32,2105
44.4,2602
44.48,3717
44.56,7576
44.64,9501
44.72,6921
44.8,4062
44.88,2681
44.96,2231
45.04,2184
45.12,2300
45.2,2477
45.28,3723
45.36,6821
45.44,5959
45.52,4533
45.6,2626
45.68,2065
45.76,1765
45.84,1660
45.92,1630
46,1568
46.08,1558
46.16,1488
46.24,1577
46.32,1583
46.4,1629
46.48,1696
46.56,1811
46.64,1774
46.72,1710
46.8,1529
46.88,1545
46.96,1461
47.04,1431
47.12,1489
47.2,1473
47.28,1538
47.36,1593
47.44,1713
47.52,2030
47.6,2550
47.68,2574
47.76,2353
47.84,1939
47.92,1839
48,2215
48.08,2455
48.16,2180
48.24,1967
48.32,1606
48.4,1709
48.48,1679
48.56,1726
48.64,1541
48.72,1497
48.8,1416
48.88,1442
48.96,1396
49.04,1456
49.12,1416
49.2,1432
49.28,1442
49.36,1399
49.44,1405
49.52,1445
49.6,1399
49.68,1529
49.76,1690
49.84,1660
49.92,1648
50,1495
50.08,1429
50.16,1501
50.24,1563
50.32,1517
50.4,1593
50.48,1591
50.56,1691
50.64,1896
50.72,2634
50.8,2721
50.88,2383
50.96,1951
51.04,1810
51.12,1567
51.2,1507
51.28,1507
51.36,1444
51.44,1383
51.52,1368
51.6,1394
51.68,1359
51.76,1402
51.84,1407
51.92,1371
52,1424
52.08,1389
52.16,1375
52.24,1320
52.32,1391
52.4,1361
52.48,1454
52.56,1418
52.64,1366
52.72,1374
52.8,1442
52.88,1425
52.96,1543
53.04,1710
53.12,1646
53.2,1575
53.28,1522
53.36,1404
53.44,1446
53.52,1375
53.6,1427
53.68,1412
53.76,1438
53.84,1393
53.92,1360
54,1329
54.08,1353
54.16,1419
54.24,1397
54.32,1303
54.4,1334
54.48,1368
54.56,1392
54.64,1366
54.72,1422
54.8,1334
54.88,1404
54.96,1449
55.04,1405
55.12,1392
55.2,1453
55.28,1483
55.36,1471
55.44,1628
55.52,1766
55.6,2009
55.68,2068
55.76,2059
55.84,2062
55.92,2179
56,2753
56.08,3290
56.16,3399
56.24,2896
56.32,2515
56.4,2007
56.48,1833
56.56,1911
56.64,2378
56.72,2255
56.8,2053
56.88,1803
56.96,1642
57.04,1458
57.12,1499
57.2,1547
57.28,1531
57.36,1577
57.44,1556
57.52,1566
57.6,1495
57.68,1543
57.76,1527
57.84,1444
57.92,1398
58,1447
58.08,1459
58.16,1492
58.24,1479
58.32,1522
58.4,1540
58.48,1652
58.56,1679
58.64,2000
58.72,2624
58.8,2969
58.88,2529
58.96,2375
59.04,1808
59.12,1696
59.2,1550
59.28,1652
59.36,1566
59.44,1721
59.52,2065
59.6,1932
59.68,1940
59.76,1741
59.84,1718
59.92,1789
60,2115
60.08,2821
60.16,4314
60.24,3800
60.32,3318
60.4,2737
60.48,1997
60.56,1771
60.64,1603
60.72,1561
60.8,1537
60.88,1555
60.96,1553
61.04,1527
61.12,1647
61.2,1954
61.28,2285
61.36,2153
61.44,2093
61.52,1898
61.6,1690
61.68,1539
61.76,1536
61.84,1503
61.92,1493
62,1563
62.08,1407
62.16,1417
62.24,1427
62.32,1398
62.4,1442
62.48,1452
62.56,1489
62.64,1509
62.72,1453
62.8,1518
62.88,1577
62.96,1741
63.04,2156
63.12,2150
63.2,1971
63.28,2030
63.36,1666
63.44,1622
63.52,1697
63.6,1880
63.68,2145
63.76,2363
63.84,2290
63.92,2469
64,2164
64.08,2012
64.16,1830
64.24,1685
64.32,1591
64.4,1556
64.48,1630
64.56,1625
64.64,1794
64.72,2041
64.8,2672
64.88,2970
64.96,2545
65.04,2510
65.12,2217
65.2,2040
65.28,2058
65.36,2242
65.44,3074
65.52,3967
65.6,3122
65.68,3108
65.76,2591
65.84,1889
65.92,1684
66,1712
66.08,1585
66.16,1571
66.24,1594
66.32,1490
66.4,1561
66.48,1647
66.56,1905
66.64,2100
66.72,1884
66.8,1921
66.88,1660
66.96,1584
67.04,1505
67.12,1629
67.2,1551
67.28,1505
67.36,1513
67.44,1584
67.52,1652
67.6,1866
67.68,1936
67.76,1755
67.84,1751
67.92,1640
68,1495
68.08,1438
68.16,1565
68.24,1605
68.32,1623
68.4,1617
68.48,1612
68.56,1554
68.64,1538
68.72,1690
68.8,1621
68.88,1632
68.96,1851
69.04,2156
69.12,2492
69.2,2238
69.28,2108
69.36,2065
69.44,1771
69.52,1711
69.6,1652
69.68,1626
69.76,1493
69.84,1494
69.92,1488
70,1418
70.08,1399
70.16,1466
70.24,1413
70.32,1467
70.4,1394
70.48,1421
70.56,1419
70.64,1423
70.72,1418
70.8,1475
70.88,1499
70.96,1508
71.04,1463
71.12,1475
71.2,1433
71.28,1430
71.36,1526
71.44,1544
71.52,1483
71.6,1485
71.68,1467
71.76,1467
71.84,1503
71.92,1391
72,1486
72.08,1481
72.16,1587
72.24,1550
72.32,1639
72.4,1716
72.48,1986
72.56,2608
72.64,2434
72.72,2162
72.8,2186
72.88,1860
72.96,1642
73.04,1562
73.12,1506
73.2,1480
73.28,1549
73.36,1507
73.44,1563
73.52,1536
73.6,1675
73.68,1610
73.76,1677
73.84,1818
73.92,2213
74,2236
74.08,2360
74.16,2770
74.24,3447
74.32,3586
74.4,3411
74.48,3079
74.56,2735
74.64,2414
74.72,1991
74.8,1981
74.88,1950
74.96,2302
75.04,2398
75.12,2149
75.2,2068
75.28,1977
75.36,1801
75.44,1677
75.52,1658
75.6,1673
75.68,1587
75.76,1589
75.84,1588
75.92,1711
76,1685
76.08,1750
76.16,1996
76.24,2407
76.32,3031
76.4,2705
76.48,2629
76.56,2931
76.64,2406
76.72,2246
76.8,2254
76.88,2093
76.96,2194
77.04,2284
77.12,2445
77.2,2558
77.28,2128
77.36,2153
77.44,1982
77.52,1682
77.6,1609
77.68,1534
77.76,1581
77.84,1499
77.92,1538
78,1544
78.08,1497
78.16,1474
78.24,1518
78.32,1523
78.4,1542
78.48,1564
78.56,1626
78.64,1749
78.72,2188
78.8,2434
78.88,2150
78.96,2302
79.04,2184
79.12,2043
79.2,1779
79.28,1706
79.36,1603
79.44,1443
79.52,1533
79.6,1442
79.68,1423
79.76,1476
79.84,1455
79.92,1425
80,1514
80.08,1478
80.16,1460
80.24,1555
80.32,1434
80.4,1686
80.48,1841
80.56,1885
80.64,1697
80.72,1748
80.8,1650
80.88,1529
80.96,1420
81.04,1435
81.12,1497
81.2,1359
81.28,1413
81.36,1399
81.44,1474
81.52,1444
81.6,1469
81.68,1430
81.76,1535
81.84,1711
81.92,1661
82,1588
82.08,1631
82.16,1617
82.24,1543
82.32,1523
82.4,1531
82.48,1489
82.56,1504
82.64,1505
82.72,1620
82.8,1642
82.88,1779
82.96,1836
83.04,1740
83.12,1717
83.2,1729
83.28,1720
83.36,1566
83.44,1555
83.52,1554
83.6,1631
83.68,1633
83.76,1847
83.84,1883
83.92,1810
84,1751
84.08,1706
84.16,1674
84.24,1546
84.32,1523
84.4,1538
84.48,1500
84.56,1503
84.64,1552
84.72,1470
84.8,1422
84.88,1391
84.96,1427
85.04,1442
85.12,1413
85.2,1530
85.28,1553
85.36,1487
85.44,1457
85.52,1435
85.6,1499
85.68,1414
85.76,1399
85.84,1428
85.92,1448
86,1395
86.08,1472
86.16,1483
86.24,1513
86.32,1431
86.4,1443
86.48,1416
86.56,1499
86.64,1380
86.72,1599
86.8,1564
86.88,1556
86.96,1635
87.04,1766
87.12,1698
87.2,1570
87.28,1616
87.36,1492
87.44,1476
87.52,1443
87.6,1407
87.68,1396
87.76,1403
87.84,1502
87.92,1444
88,1472
88.08,1444
88.16,1368
88.24,1370
88.32,1389
88.4,1329
88.48,1337
88.56,1416
88.64,1398
88.72,1415
88.8,1389
88.88,1379
88.96,1420
89.04,1379
89.12,1397
89.2,1420
89.28,1422
89.36,1433
89.44,1479
89.52,1472
89.6,1525
89.68,1615
89.76,1811
89.84,1751
89.92,1665
90,1622
90.08,1619
90.16,1551
90.24,1440
90.32,1423
90.4,1439
90.48,1480
90.56,1392
90.64,1357
90.72,1453
90.8,1446
90.88,1377
90.96,1440
91.04,1464
91.12,1470
91.2,1441
91.28,1493
91.36,1441
91.44,1525
91.52,1482
91.6,1584
91.68,1451
91.76,1509
91.84,1507
91.92,1519
92,1374
92.08,1479
92.16,1403
92.24,1386
92.32,1405
92.4,1446
92.48,1438
92.56,1466
92.64,1489
92.72,1514
92.8,1490
92.88,1464
92.96,1471
93.04,1454
93.12,1540
93.2,1475
93.28,1511
93.36,1504
93.44,1599
93.52,1741
93.6,1778
93.68,1671
93.76,1673
93.84,1593
93.92,1789
94,1784
94.08,1797
94.16,1688
94.24,1654
94.32,1710
94.4,1612
94.48,1696
94.56,1614
94.64,1471
94.72,1603
94.8,1506
94.88,1461
94.96,1464
95.04,1510
95.12,1351
95.2,1420
95.28,1422
95.36,1452
95.44,1469
95.52,1551
95.6,1504
95.68,1460
95.76,1450
95.84,1434
95.92,1470
96,1403
96.08,1406
96.16,1463
96.24,1443
96.32,1404
96.4,1446
96.48,1408
96.56,1364
96.64,1478
96.72,1477
96.8,1454
96.88,1402
96.96,1396
97.04,1442
97.12,1418
97.2,1418
97.28,1410
97.36,1430
97.44,1449
97.52,1468
97.6,1498
97.68,1573
97.76,1587
97.84,1529
97.92,1556
98,1645
98.08,1728
98.16,1899
98.24,1892
98.32,1777
98.4,2044
98.48,1988
98.56,1971
98.64,2116
98.72,2289
98.8,2120
98.88,1878
98.96,1890
99.04,1887
99.12,1798
99.2,1681
99.28,1756
99.36,1712
99.44,1814
99.52,1912
99.6,1856
99.68,1786
99.76,1730
99.84,1749
99.92,1736
100,1593
100.08,1649
100.16,1631
100.24,1605
100.32,1655
100.4,1584
100.48,1545
100.56,1561
100.64,1545
100.72,1517
100.8,1510
100.88,1505
100.96,1478
101.04,1506
101.12,1509
101.2,1538
101.28,1582
101.36,1495
101.44,1577
101.52,1545
101.6,1500
101.68,1522
101.76,1486
101.84,1597
101.92,1548
102,1611
102.08,1621
102.16,1603
102.24,1593
102.32,1544
102.4,1608
102.48,1596
102.56,1648
102.64,1749
102.72,1683
102.8,1549
102.88,1679
102.96,1568
103.04,1561
103.12,1533
103.2,1493
103.28,1464
103.36,1518
103.44,1498
103.52,1459
103.6,1479
103.68,1488
103.76,1445