File: data/xrd_icdd_PDF/00-054-0562 (PD3).csv
10,1056
10.08,1082
10.16,1070
10.24,1070
10.32,946
10.4,1046
10.48,876
10.56,980
10.64,1030
10.72,984
10.8,1070
10.88,940
10.96,856
11.04,924
11.12,898
11.2,872
11.28,898
11.36,888
11.44,846
11.52,826
11.6,846
11.68,790
11.76,908
11.84,872
11.92,840
12,796
12.08,876
12.16,830
12.24,806
12.32,800
12.4,786
12.48,866
12.56,722
12.64,790
12.72,796
12.8,800
12.88,796
12.96,780
13.04,756
13.12,736
13.2,736
13.28,722
13.36,732
13.44,776
13.52,726
13.6,766
13.68,712
13.76,704
13.84,750
13.92,722
14,698
14.08,634
14.16,704
14.24,726
14.32,626
14.4,670
14.48,708
14.56,644
14.64,640
14.72,666
14.8,608
14.88,634
14.96,690
15.04,596
15.12,622
15.2,690
15.28,608
15.36,666
15.44,608
15.52,574
15.6,574
15.68,608
15.76,732
15.84,676
15.92,736
16,694
16.08,652
16.16,640
16.24,718
16.32,590
16.4,634
16.48,590
16.56,612
16.64,574
16.72,582
16.8,532
16.88,566
16.96,524
17.04,524
17.12,520
17.2,556
17.28,516
17.36,528
17.44,590
17.52,536
17.6,458
17.68,548
17.76,552
17.84,512
17.92,552
18,556
18.08,524
18.16,480
18.24,566
18.32,524
18.4,512
18.48,500
18.56,548
18.64,694
18.72,532
18.8,570
18.88,516
18.96,562
19.04,544
19.12,508
19.2,540
19.28,472
19.36,548
19.44,512
19.52,500
19.6,570
19.68,582
19.76,516
19.84,540
19.92,590
20,600
20.08,616
20.16,528
20.24,555
20.32,614
20.4,602
20.48,500
20.56,566
20.64,574
20.72,570
20.8,496
20.88,566
20.96,566
21.04,528
21.12,582
21.2,582
21.28,504
21.36,616
21.44,582
21.52,680
21.6,680
21.68,888
21.76,1116
21.84,1668
21.92,3100
22,6174
22.08,6512
22.16,2406
22.24,1122
22.32,760
22.4,738
22.48,648
22.56,608
22.64,590
22.72,578
22.8,528
22.88,590
22.96,582
23.04,504
23.12,504
23.2,500
23.28,544
23.36,616
23.44,528
23.52,590
23.6,586
23.68,544
23.76,604
23.84,556
23.92,600
24,586
24.08,694
24.16,676
24.24,726
24.32,990
24.4,1498
24.48,2494
24.56,4186
24.64,2794
24.72,1306
24.8,850
24.88,712
24.96,582
25.04,718
25.12,626
25.2,684
25.28,684
25.36,634
25.44,604
25.52,574
25.6,630
25.68,612
25.76,600
25.84,634
25.92,548
26,586
26.08,630
26.16,644
26.24,690
26.32,644
26.4,736
26.48,634
26.56,630
26.64,694
26.72,766
26.8,666
26.88,698
26.96,800
27.04,790
27.12,828
27.2,892
27.28,802
27.36,796
27.44,946
27.52,970
27.6,1018
27.68,1122
27.76,1378
27.84,1960
27.92,2822
28,5254
28.08,12168
28.16,23058
28.24,14986
28.32,4644
28.4,2048
28.48,1472
28.56,1110
28.64,1030
28.72,882
28.8,866
28.88,800
28.96,760
29.04,746
29.12,746
29.2,680
29.28,698
29.36,786
29.44,766
29.52,746
29.6,662
29.68,666
29.76,600
29.84,670
29.92,670
30,722
30.08,742
30.16,722
30.24,718
30.32,604
30.4,698
30.48,718
30.56,658
30.64,596
30.72,658
30.8,708
30.88,718
30.96,676
31.04,756
31.12,776
31.2,756
31.28,802
31.36,836
31.44,808
31.52,802
31.6,880
31.68,806
31.76,886
31.84,908
31.92,992
32,1168
32.08,1472
32.16,2120
32.24,3160
32.32,5370
32.4,9164
32.48,20302
32.56,45562
32.64,51400
32.72,27378
32.8,9660
32.88,4976
32.96,3156
33.04,2338
33.12,1788
33.2,1432
33.28,1332
33.36,1228
33.44,1124
33.52,1018
33.6,944
33.68,908
33.76,850
33.84,826
33.92,784
34,732
34.08,728
34.16,718
34.24,724
34.32,670
34.4,770
34.48,680
34.56,680
34.64,702
34.72,636
34.8,686
34.88,762
34.96,680
35.04,610
35.12,728
35.2,684
35.28,698
35.36,610
35.44,604
35.52,634
35.6,652
35.68,548
35.76,544
35.84,658
35.92,646
36,538
36.08,510
36.16,536
36.24,602
36.32,630
36.4,582
36.48,626
36.56,672
36.64,656
36.72,662
36.8,630
36.88,694
36.96,736
37.04,796
37.12,930
37.2,1104
37.28,1424
37.36,2104
37.44,2916
37.52,4790
37.6,10386
37.68,22818
37.76,23006
37.84,13042
37.92,4826
38,2512
38.08,1534
38.16,1188
38.24,984
38.32,800
38.4,634
38.48,658
38.56,536
38.64,520
38.72,508
38.8,552
38.88,480
38.96,406
39.04,428
39.12,392
39.2,344
39.28,400
39.36,406
39.44,382
39.52,416
39.6,368
39.68,374
39.76,352
39.84,382
39.92,382
40,432
40.08,344
40.16,332
40.24,420
40.32,396
40.4,442
40.48,402
40.56,406
40.64,412
40.72,324
40.8,460
40.88,480
40.96,468
41.04,362
41.12,416
41.2,374
41.28,414
41.36,416
41.44,364
41.52,432
41.6,406
41.68,436
41.76,432
41.84,512
41.92,476
42,496
42.08,532
42.16,604
42.24,648
42.32,690
42.4,790
42.48,980
42.56,1002
42.64,1340
42.72,1884
42.8,2898
42.88,4728
42.96,7796
43.04,14428
43.12,19800
43.2,17136
43.28,9402
43.36,4406
43.44,2286
43.52,1668
43.6,1306
43.68,984
43.76,776
43.84,732
43.92,574
44,536
44.08,516
44.16,524
44.24,442
44.32,462
44.4,480
44.48,454
44.56,458
44.64,402
44.72,458
44.8,378
44.88,396
44.96,372
45.04,400
45.12,358
45.2,386
45.28,372
45.36,374
45.44,374
45.52,458
45.6,450
45.68,462
45.76,414
45.84,396
45.92,466
46,378
46.08,374
46.16,396
46.24,450
46.32,396
46.4,500
46.48,410
46.56,472
46.64,458
46.72,512
46.8,520
46.88,652
46.96,574
47.04,512
47.12,516
47.2,492
47.28,496
47.36,566
47.44,544
47.52,496
47.6,570
47.68,630
47.76,604
47.84,630
47.92,666
48,718
48.08,736
48.16,722
48.24,836
48.32,816
48.4,996
48.48,1306
48.56,2194
48.64,2338
48.72,2458
48.8,2936
48.88,4324
48.96,6888
49.04,12384
49.12,9888
49.2,6962
49.28,3342
49.36,2000
49.44,1320
49.52,1040
49.6,856
49.68,898
49.76,736
49.84,820
49.92,946
50,1046
50.08,1412
50.16,2338
50.24,2804
50.32,2804
50.4,2154
50.48,1412
50.56,1006
50.64,830
50.72,652
50.8,616
50.88,604
50.96,604
51.04,604
51.12,536
51.2,548
51.28,574
51.36,666
51.44,704
51.52,670
51.6,742
51.68,750
51.76,846
51.84,946
51.92,1098
52,1520
52.08,2128
52.16,4130
52.24,6904
52.32,7022
52.4,5632
52.48,3352
52.56,1800
52.64,1040
52.72,786
52.8,760
52.88,684
52.96,604
53.04,652
53.12,578
53.2,590
53.28,528
53.36,484
53.44,378
53.52,358
53.6,364
53.68,358
53.76,386
53.84,388
53.92,402
54,428
54.08,374
54.16,446
54.24,416
54.32,406
54.4,388
54.48,354
54.56,416
54.64,388
54.72,386
54.8,388
54.88,416
54.96,374
55.04,378
55.12,402
55.2,382
55.28,410
55.36,438
55.44,458
55.52,472
55.6,402
55.68,466
55.76,400
55.84,492
55.92,476
56,466
56.08,488
56.16,500
56.24,480
56.32,466
56.4,406
56.48,458
56.56,516
56.64,446
56.72,432
56.8,504
56.88,454
56.96,524
57.04,436
57.12,596
57.2,566
57.28,608
57.36,590
57.44,634
57.52,570
57.6,604
57.68,548
57.76,634
57.84,722
57.92,756
58,904
58.08,984
58.16,1128
58.24,1624
58.32,2432
58.4,4084
58.48,8080
58.56,12640
58.64,12286
58.72,9712
58.8,6132
58.88,3240
58.96,1638
59.04,1314
59.12,930
59.2,742
59.28,648
59.36,570
59.44,528
59.52,528
59.6,476
59.68,508
59.76,416
59.84,402
59.92,420
60,432
60.08,402
60.16,428
60.24,392
60.32,374
60.4,368
60.48,374
60.56,386
60.64,354
60.72,428
60.8,400
60.88,372
60.96,420
61.04,410
61.12,438
61.2,466
61.28,528
61.36,556
61.44,718
61.52,790
61.6,1294
61.68,1718
61.76,1306
61.84,1268
61.92,1012
62,760
62.08,780
62.16,952
62.24,1040
62.32,1352
62.4,1984
62.48,2710
62.56,3392
62.64,3612
62.72,3322
62.8,2476
62.88,1816
62.96,1188
63.04,930
63.12,776
63.2,680
63.28,626
63.36,540
63.44,492
63.52,472
63.6,432
63.68,480
63.76,500
63.84,496
63.92,500
64,504
64.08,468
64.16,484
64.24,446
64.32,432
64.4,428
64.48,388
64.56,416
64.64,492
64.72,446
64.8,428
64.88,450
64.96,374
65.04,420
65.12,438
65.2,462
65.28,406
65.36,388
65.44,454
65.52,436
65.6,436
65.68,396
65.76,428
65.84,462
65.92,446
66,416
66.08,492
66.16,488
66.24,544
66.32,488
66.4,524
66.48,524
66.56,612
66.64,676
66.72,694
66.8,810
66.88,930
66.96,1232
67.04,1604
67.12,2262
67.2,3454
67.28,6036
67.36,6146
67.44,4888
67.52,4198
67.6,2756
67.68,1690
67.76,1340
67.84,1086
67.92,1086
68,1040
68.08,1212
68.16,1582
68.24,2186
68.32,2556
68.4,2566
68.48,1922
68.56,1596
68.64,1194
68.72,866
68.8,840
68.88,718
68.96,736
69.04,652
69.12,662
69.2,622
69.28,666
69.36,648
69.44,634
69.52,736
69.6,694
69.68,780
69.76,892
69.84,1288
69.92,1632
70,1792
70.08,1638
70.16,1520
70.24,1250
70.32,866
70.4,708
70.48,658
70.56,630
70.64,600
70.72,612
70.8,528
70.88,516
70.96,548
71.04,520
71.12,562
71.2,582
71.28,612
71.36,566
71.44,698
71.52,708
71.6,750
71.68,810
71.76,1012
71.84,1212
71.92,1366
72,1846
72.08,2312
72.16,3528
72.24,5658
72.32,7140
72.4,8128
72.48,11648
72.56,12800
72.64,7970
72.72,7126
72.8,5422
72.88,2926
72.96,2080
73.04,1540
73.12,1268
73.2,1104
73.28,968
73.36,856
73.44,820
73.52,690
73.6,718
73.68,708
73.76,666
73.84,536
73.92,544
74,552
74.08,544
74.16,556
74.24,570
74.32,496
74.4,492
74.48,516
74.56,480
74.64,540
74.72,566
74.8,574
74.88,528
74.96,718
75.04,806
75.12,936
75.2,1152
75.28,1576
75.36,2080
75.44,2312
75.52,2486
75.6,2104
75.68,1590
75.76,1392
75.84,1040
75.92,786
76,616
76.08,596
76.16,492
76.24,476
76.32,536
76.4,432
76.48,496
76.56,446
76.64,396
76.72,424
76.8,388
76.88,364
76.96,396
77.04,476
77.12,400
77.2,352
77.28,362
77.36,436
77.44,368
77.52,438
77.6,484
77.68,496
77.76,528
77.84,566
77.92,622
78,770
78.08,1098
78.16,1520
78.24,1472
78.32,1226
78.4,1170
78.48,898
78.56,718
78.64,760
78.72,492
78.8,512
78.88,544
78.96,472
79.04,578
79.12,562
79.2,742
79.28,1140
79.36,908
79.44,810
79.52,892
79.6,726
79.68,548
79.76,428
79.84,462
79.92,386
80,428
80.08,400
80.16,436
80.24,388
80.32,382
80.4,374
80.48,420
80.56,334
80.64,414
80.72,372
80.8,342
80.88,348
80.96,328
81.04,364
81.12,362
81.2,318
81.28,386
81.36,400
81.44,406
81.52,374
81.6,358
81.68,386
81.76,392
81.84,374
81.92,386
82,372
82.08,402
82.16,400
82.24,420
82.32,410
82.4,480
82.48,446
82.56,536
82.64,566
82.72,582
82.8,726
82.88,866
82.96,1064
83.04,1122
83.12,1146
83.2,1492
83.28,1822
83.36,2146
83.44,2112
83.52,1690
83.6,1294
83.68,1282
83.76,980
83.84,708
83.92,586
84,528
84.08,552
84.16,544
84.24,698
84.32,786
84.4,796
84.48,684
84.56,578
84.64,562
84.72,540
84.8,468
84.88,468
84.96,424
85.04,446
85.12,432
85.2,458
85.28,420
85.36,492
85.44,574
85.52,528
85.6,810
85.68,940
85.76,1212
85.84,1232
85.92,1268
86,1218
86.08,1024
86.16,840
86.24,746
86.32,512
86.4,438
86.48,446
86.56,402
86.64,402
86.72,312
86.8,446
86.88,364
86.96,368
87.04,312
87.12,258
87.2,352
87.28,344
87.36,304
87.44,306
87.52,352
87.6,276
87.68,358
87.76,348
87.84,332
87.92,338
88,338
88.08,354
88.16,362
88.24,362
88.32,298
88.4,342
88.48,316
88.56,332
88.64,304
88.72,300
88.8,312
88.88,318
88.96,326
89.04,298
89.12,310
89.2,312
89.28,344
89.36,328
89.44,386
89.52,368
89.6,382
89.68,382
89.76,410
89.84,410
89.92,374
90,420
90.08,388
90.16,484
90.24,524
90.32,582
90.4,622
90.48,600
90.56,800
90.64,850
90.72,990
90.8,1366
90.88,1898
90.96,2296
91.04,2442
91.12,2494
91.2,2584
91.28,2212
91.36,1690
91.44,1486
91.52,1250
91.6,946
91.68,780
91.76,680
91.84,540
91.92,512
92,516
92.08,468
92.16,480
92.24,466
92.32,386
92.4,454
92.48,414
92.56,416
92.64,428
92.72,484
92.8,450
92.88,468
92.96,462
93.04,476
93.12,468
93.2,548
93.28,532
93.36,472
93.44,566
93.52,694
93.6,722
93.68,974
93.76,962
93.84,876
93.92,790
94,968
94.08,996
94.16,1002
94.24,1018
94.32,1158
94.4,1464
94.48,1590
94.56,1938
94.64,2346
94.72,2994
94.8,3960
94.88,3508
94.96,2432
95.04,2390
95.12,2442
95.2,1938
95.28,1300
95.36,946
95.44,830
95.52,756
95.6,712
95.68,582
95.76,548
95.84,566
95.92,500
96,504
96.08,480
96.16,468
96.24,492
96.32,442
96.4,462
96.48,372
96.56,438
96.64,504
96.72,432
96.8,388
96.88,436
96.96,400
97.04,438
97.12,436
97.2,378
97.28,438
97.36,450
97.44,420
97.52,466
97.6,446
97.68,414
97.76,508
97.84,480
97.92,524
98,492
98.08,600
98.16,566
98.24,566
98.32,680
98.4,766
98.48,882
98.56,1040
98.64,1378
98.72,1590
98.8,2016
98.88,1968
98.96,1984
99.04,2064
99.12,1822
99.2,1526
99.28,1256
99.36,1164
99.44,1018
99.52,892
99.6,786
99.68,796
99.76,786
99.84,726
99.92,708
100,770
100.08,698
100.16,604
100.24,662
100.32,508
100.4,540
100.48,570
100.56,496
100.64,532
100.72,578
100.8,630
100.88,648
100.96,612
101.04,708
101.12,846
101.2,920
101.28,974
101.36,898
101.44,920
101.52,1006
101.6,1018
101.68,1076
101.76,796
101.84,736
101.92,704
102,648
102.08,608
102.16,622
102.24,536
102.32,604
102.4,492
102.48,566
102.56,562
102.64,608
102.72,608
102.8,658
102.88,680
102.96,726
103.04,760
103.12,850
103.2,962
103.28,1064
103.36,1398
103.44,1610
103.52,1892
103.6,2320
103.68,2664
103.76,3322
103.84,4072
103.92,4632
104,4348
104.08,3796
104.16,3476
104.24,3190
104.32,2832
104.4,2476
104.48,1892
104.56,1458
104.64,1092
104.72,984
104.8,930
104.88,776
104.96,726
105.04,630
105.12,670
105.2,644
105.28,666
105.36,694
105.44,726
105.52,578
105.6,608
105.68,578
105.76,658
105.84,630
105.92,698
106,644
106.08,694
106.16,790
106.24,760
106.32,980
106.4,1116
106.48,1340
106.56,1638
106.64,1892
106.72,1846
106.8,1976
106.88,2064
106.96,2398
107.04,2220
107.12,1726
107.2,1412
107.28,1320
107.36,1268
107.44,1262
107.52,872
107.6,800
107.68,718
107.76,680
107.84,666
107.92,640
108,616
108.08,596
108.16,578
108.24,586
108.32,616
108.4,566
108.48,582
108.56,640
108.64,604
108.72,630
108.8,600
108.88,596
108.96,604
109.04,698
109.12,690
109.2,746
109.28,882
109.36,892
109.44,996
109.52,1128
109.6,1176
109.68,1256
109.76,1384
109.84,1624
109.92,1590
110,1604
110.02,1682