File: data/xrd_icdd_PDF/00-061-0052 (PD3).csv
15,2789
15.08,2698
15.16,2754
15.24,2748
15.32,2765
15.4,2773
15.48,2714
15.56,2699
15.64,2799
15.72,2737
15.8,2785
15.88,2710
15.96,2797
16.04,2743
16.12,2704
16.2,2785
16.28,2746
16.36,2804
16.44,2676
16.52,2741
16.6,2718
16.68,2729
16.76,2728
16.84,2828
16.92,2746
17,2755
17.08,2709
17.16,2709
17.24,2771
17.32,2813
17.4,2750
17.48,2886
17.56,2918
17.64,2754
17.72,2779
17.8,2805
17.88,2776
17.96,2779
18.04,2734
18.12,2812
18.2,2797
18.28,2726
18.36,2764
18.44,2745
18.52,2734
18.6,2700
18.68,2681
18.76,2811
18.84,2842
18.92,2723
19,2736
19.08,2799
19.16,2889
19.24,2820
19.32,2649
19.4,2735
19.48,2824
19.56,2767
19.64,2759
19.72,2783
19.8,2734
19.88,2732
19.96,2674
20.04,2775
20.12,2781
20.2,2778
20.28,2833
20.36,2774
20.44,2761
20.52,2722
20.6,2780
20.68,2620
20.76,2705
20.84,2676
20.92,2715
21,2747
21.08,2709
21.16,2763
21.24,2655
21.32,2783
21.4,2656
21.48,2758
21.56,2724
21.64,2728
21.72,2687
21.8,2746
21.88,2903
21.96,3070
22.04,3555
22.12,3664
22.2,2943
22.28,2908
22.36,2695
22.44,2710
22.52,2770
22.6,2772
22.68,2709
22.76,2739
22.84,2732
22.92,2782
23,2967
23.08,3009
23.16,3668
23.24,4411
23.32,3742
23.4,3038
23.48,2830
23.56,2730
23.64,2756
23.72,2820
23.8,2786
23.88,2768
23.96,2626
24.04,2631
24.12,2725
24.2,2735
24.28,2672
24.36,2709
24.44,2604
24.52,2725
24.6,2749
24.68,2777
24.76,2743
24.84,2643
24.92,2761
25,2785
25.08,2742
25.16,2717
25.24,2656
25.32,2668
25.4,2701
25.48,2746
25.56,2721
25.64,2671
25.72,2723
25.8,2705
25.88,2739
25.96,2710
26.04,2647
26.12,2697
26.2,2691
26.28,2727
26.36,2757
26.44,2834
26.52,2781
26.6,2927
26.68,3417
26.76,4653
26.84,5947
26.92,4839
27,3592
27.08,3030
27.16,2846
27.24,2764
27.32,2827
27.4,2800
27.48,2765
27.56,2741
27.64,2628
27.72,2700
27.8,2718
27.88,2700
27.96,2825
28.04,2678
28.12,2825
28.2,2724
28.28,2673
28.36,2664
28.44,2753
28.52,2715
28.6,2689
28.68,2724
28.76,2705
28.84,2794
28.92,2765
29,2716
29.08,2665
29.16,2731
29.24,2761
29.32,2696
29.4,2702
29.48,2738
29.56,2743
29.64,2743
29.72,2871
29.8,2804
29.88,2786
29.96,2773
30.04,2747
30.12,2754
30.2,2721
30.28,2752
30.36,2618
30.44,2714
30.52,2687
30.6,2680
30.68,2768
30.76,2760
30.84,2757
30.92,2783
31,2779
31.08,2876
31.16,2709
31.24,2816
31.32,2761
31.4,2804
31.48,2815
31.56,2854
31.64,2761
31.72,2729
31.8,2751
31.88,2944
31.96,2889
32.04,3154
32.12,3540
32.2,4095
32.28,3903
32.36,3151
32.44,2844
32.52,2844
32.6,2788
32.68,2810
32.76,2782
32.84,2876
32.92,2805
33,2796
33.08,2840
33.16,2847
33.24,2878
33.32,2949
33.4,2893
33.48,2886
33.56,2933
33.64,2835
33.72,2840
33.8,2941
33.88,2936
33.96,2909
34.04,3187
34.12,3351
34.2,4035
34.28,5899
34.36,6189
34.44,4642
34.52,3421
34.6,3297
34.68,3158
34.76,3128
34.84,3210
34.92,3302
35,3446
35.08,3392
35.16,3223
35.24,3362
35.32,3632
35.4,4321
35.48,5626
35.56,6389
35.64,7989
35.72,16188
35.8,22588
35.88,14727
35.96,7147
36.04,4600
36.12,3770
36.2,3540
36.28,3412
36.36,3405
36.44,3365
36.52,3456
36.6,3690
36.68,4140
36.76,4951
36.84,7682
36.92,15478
37,17043
37.08,11321
37.16,5953
37.24,4282
37.32,3714
37.4,3650
37.48,3368
37.56,3274
37.64,3429
37.72,3469
37.8,3718
37.88,4498
37.96,6356
38.04,10205
38.12,9860
38.2,6831
38.28,4656
38.36,3946
38.44,3656
38.52,3325
38.6,3176
38.68,3196
38.76,3094
38.84,3057
38.92,3127
39,3066
39.08,3029
39.16,3068
39.24,3027
39.32,3093
39.4,2971
39.48,3047
39.56,2982
39.64,3014
39.72,3068
39.8,3031
39.88,3071
39.96,3058
40.04,2990
40.12,2987
40.2,3001
40.28,3203
40.36,3069
40.44,2918
40.52,3031
40.6,2956
40.68,3063
40.76,2982
40.84,3047
40.92,3036
41,3045
41.08,3019
41.16,3033
41.24,2935
41.32,3042
41.4,3016
41.48,3100
41.56,3120
41.64,3068
41.72,3054
41.8,3093
41.88,3063
41.96,3027
42.04,3124
42.12,3085
42.2,3167
42.28,3050
42.36,3086
42.44,3017
42.52,3020
42.6,3022
42.68,3053
42.76,3040
42.84,2988
42.92,3139
43,3118
43.08,3093
43.16,3147
43.24,3179
43.32,3326
43.4,3324
43.48,3546
43.56,4035
43.64,4580
43.72,6083
43.8,7506
43.88,7291
43.96,6461
44.04,6795
44.12,6510
44.2,5502
44.28,4253
44.36,4036
44.44,3935
44.52,4810
44.6,7075
44.68,6885
44.76,5838
44.84,4352
44.92,3999
45,4262
45.08,4156
45.16,3664
45.24,3392
45.32,3100
45.4,3120
45.48,3097
45.56,3024
45.64,3091
45.72,3074
45.8,2996
45.88,2998
45.96,2969
46.04,3033
46.12,3022
46.2,2928
46.28,2999
46.36,2925
46.44,3007
46.52,2983
46.6,2987
46.68,3011
46.76,2924
46.84,3081
46.92,3037
47,3190
47.08,3139
47.16,3270
47.24,3423
47.32,3893
47.4,4522
47.48,4175
47.56,3733
47.64,3354
47.72,3173
47.8,3079
47.88,3056
47.96,3030
48.04,3137
48.12,3114
48.2,3009
48.28,3067
48.36,2978
48.44,3043
48.52,3027
48.6,3049
48.68,2934
48.76,3041
48.84,3080
48.92,3041
49,3047
49.08,3033
49.16,2984
49.24,2997
49.32,2926
49.4,3103
49.48,3047
49.56,3109
49.64,3142
49.72,3088
49.8,3128
49.88,3023
49.96,3006
50.04,2966
50.12,3002
50.2,3066
50.28,3065
50.36,3161
50.44,2912
50.52,3106
50.6,3007
50.68,2881
50.76,3053
50.84,2956
50.92,3015
51,2980
51.08,2996
51.16,2941
51.24,2999
51.32,2942
51.4,3038
51.48,3052
51.56,3027
51.64,2954
51.72,3116
51.8,3121
51.88,3121
51.96,3291
52.04,3422
52.12,3525
52.2,3610
52.28,3354
52.36,3238
52.44,3081
52.52,3157
52.6,3133
52.68,2944
52.76,2988
52.84,2981
52.92,3035
53,3133
53.08,3067
53.16,2989
53.24,3053
53.32,3042
53.4,3082
53.48,3049
53.56,3033
53.64,2995
53.72,3062
53.8,3156
53.88,3082
53.96,3111
54.04,3194
54.12,3434
54.2,4159
54.28,4829
54.36,4251
54.44,4037
54.52,3501
54.6,3252
54.68,3176
54.76,3213
54.84,3310
54.92,3411
55,3662
55.08,4177
55.16,4249
55.24,4794
55.32,4507
55.4,4275
55.48,3799
55.56,3525
55.64,3412
55.72,3171
55.8,3183
55.88,3170
55.96,3206
56.04,3060
56.12,3043
56.2,3145
56.28,3116
56.36,3085
56.44,3065
56.52,3073
56.6,3061
56.68,3086
56.76,3080
56.84,3096
56.92,3183
57,3229
57.08,3109
57.16,3068
57.24,3137
57.32,3212
57.4,3261
57.48,3372
57.56,3631
57.64,3648
57.72,3618
57.8,3652
57.88,3513
57.96,3384
58.04,3374
58.12,3174
58.2,3126
58.28,3123
58.36,3144
58.44,3134
58.52,3119
58.6,3194
58.68,3172
58.76,3093
58.84,3229
58.92,3260
59,3263
59.08,3361
59.16,3607
59.24,4087
59.32,4869
59.4,5568
59.48,5141
59.56,4690
59.64,4093
59.72,3595
59.8,3407
59.88,3283
59.96,3090
60.04,3263
60.12,3215
60.2,3055
60.28,3211
60.36,3227
60.44,3250
60.52,3282
60.6,3573
60.68,3848
60.76,4246
60.84,3799
60.92,3716
61,3476
61.08,3294
61.16,3204
61.24,3268
61.32,3227
61.4,3365
61.48,3447
61.56,3754
61.64,4203
61.72,4279
61.8,4129
61.88,3896
61.96,3535
62.04,3395
62.12,3185
62.2,3177
62.28,3154
62.36,3276
62.44,3044
62.52,3110
62.6,3146
62.68,3193
62.76,3198
62.84,3097
62.92,3123
63,3070
63.08,3069
63.16,3160
63.24,3241
63.32,3162
63.4,3216
63.48,3246
63.56,3156
63.64,3258
63.72,3223
63.8,3223
63.88,3219
63.96,3424
64.04,3451
64.12,3525
64.2,4119
64.28,5073
64.36,5005
64.44,4645
64.52,4575
64.6,4116
64.68,3743
64.76,3623
64.84,3565
64.92,3421
65,3308
65.08,3229
65.16,3101
65.24,3254
65.32,3180
65.4,3143
65.48,3192
65.56,3281
65.64,3350
65.72,3310
65.8,3231
65.88,3263
65.96,3191
66.04,3374
66.12,3311
66.2,3336
66.28,3469
66.36,3889
66.44,4425
66.52,5097
66.6,4823
66.68,4601
66.76,4179
66.84,3648
66.92,3479
67,3312
67.08,3393
67.16,3313
67.24,3276
67.32,3325
67.4,3292
67.48,3172
67.56,3215
67.64,3206
67.72,3353
67.8,3256
67.88,3272
67.96,3133
68.04,3339
68.12,3363
68.2,3257
68.28,3327
68.36,3224
68.44,3455
68.52,3645
68.6,3690
68.68,4248
68.76,5079
68.84,5322
68.92,4782
69,4502
69.08,3828
69.16,3660
69.24,3503
69.32,3261
69.4,3232
69.48,3338
69.56,3238
69.64,3299
69.72,3305
69.8,3265
69.88,3225
69.96,3342
70.04,3276
70.12,3390
70.2,3413
70.28,3351
70.36,3295
70.44,3351
70.52,3274
70.6,3291
70.68,3257
70.76,3227
70.84,3312
70.92,3253
71,3233
71.08,3175
71.16,3221
71.24,3202
71.32,3160
71.4,3286
71.48,3296
71.56,3180
71.64,3214
71.72,3240
71.8,3288
71.88,3190
71.96,3220
72.04,3271
72.12,3263
72.2,3302
72.28,3345
72.36,3311
72.44,3379
72.52,3432
72.6,3361
72.68,3419
72.76,3560
72.84,3753
72.92,4066
73,4296
73.08,4293
73.16,3939
73.24,3899
73.32,3596
73.4,3417
73.48,3362
73.56,3388
73.64,3408
73.72,3401
73.8,3373
73.88,3344
73.96,3306
74.04,3463
74.12,3419
74.2,3447
74.28,3536
74.36,3425
74.44,3410
74.52,3473
74.6,3479
74.68,3379
74.76,3517
74.84,3458
74.92,3561
75,3698
75.08,3858
75.16,4166
75.24,4324
75.32,4275
75.4,4144
75.48,4165
75.56,3889
75.64,3971
75.72,4106
75.8,4055
75.88,4168
75.96,4170
76.04,4129
76.12,3959
76.2,3809
76.28,3760
76.36,3625
76.44,3413
76.52,3481
76.6,3405
76.68,3528
76.76,3364
76.84,3304
76.92,3233
77,3388
77.08,3373
77.16,3292
77.24,3279
77.32,3256
77.4,3255
77.48,3321
77.56,3312
77.64,3341
77.72,3380
77.8,3420
77.88,3385
77.96,3257
78.04,3347
78.12,3367
78.2,3361
78.28,3378
78.36,3465
78.44,3495
78.52,3617
78.6,3995
78.68,4228
78.76,3982
78.84,3901
78.92,3903
79,3670
79.08,3548
79.16,3402
79.24,3376
79.32,3370
79.4,3302
79.48,3403
79.56,3251
79.64,3385
79.72,3288
79.8,3296
79.88,3334
79.96,3247
80.04,3303
80.12,3391
80.2,3363
80.28,3382
80.36,3382
80.44,3474
80.52,3499
80.6,3476
80.68,3671
80.76,3706
80.84,3566
80.92,3848
81,4050
81.08,4553
81.16,4660
81.24,4578
81.32,4481
81.4,4451
81.48,4196
81.56,4001
81.64,4020
81.72,4050
81.8,4101
81.88,3986
81.96,3801
82.04,3776
82.12,3705
82.2,3582
82.28,3438
82.36,3420
82.44,3356
82.52,3423
82.6,3406
82.68,3363
82.76,3248
82.84,3396
82.92,3467
83,3315
83.08,3524
83.16,3431
83.24,3436
83.32,3376
83.4,3434
83.48,3288
83.56,3359
83.64,3294
83.72,3400
83.8,3383
83.88,3275
83.96,3383
84.04,3347
84.12,3360
84.2,3381
84.28,3274
84.36,3276
84.44,3314
84.52,3290
84.6,3343
84.68,3315
84.76,3284
84.84,3266
84.92,3258
85,3289
85.08,3395
85.16,3361
85.24,3282
85.32,3352
85.4,3291
85.48,3394
85.56,3340
85.64,3340
85.72,3310
85.8,3264
85.88,3336
85.96,3253
86.04,3355
86.12,3301
86.2,3307
86.28,3402
86.36,3412
86.44,3481
86.52,3402
86.6,3396
86.68,3461
86.76,3469
86.84,3326
86.92,3381
87,3221
87.08,3320
87.16,3320
87.24,3314
87.32,3366
87.4,3370
87.48,3340
87.56,3373
87.64,3387
87.72,3396
87.8,3477
87.88,3318
87.96,3482
88.04,3505
88.12,3648
88.2,3679
88.28,3624
88.36,3696
88.44,3687
88.52,3552
88.6,3494
88.68,3469
88.76,3456
88.84,3426
88.92,3485
89,3413
89.08,3399
89.16,3444
89.24,3505
89.32,3359
89.4,3450
89.48,3464
89.56,3458
89.64,3383
89.72,3478
89.8,3469
89.88,3393
89.96,3460
90.04,3375
90.12,3373
90.2,3369
90.28,3315
90.36,3459
90.44,3446
90.52,3316
90.6,3412
90.68,3251
90.76,3354
90.84,3372
90.92,3442
91,3381
91.08,3378
91.16,3484
91.24,3433
91.32,3466
91.4,3488
91.48,3464
91.56,3503
91.64,3493
91.72,3395
91.8,3497
91.88,3471
91.96,3471
92.04,3441
92.12,3431
92.2,3438
92.28,3318
92.36,3440
92.44,3588
92.52,3457
92.6,3429
92.68,3582
92.76,3547
92.84,3617
92.92,3521
93,3506
93.08,3547
93.16,3513
93.24,3466
93.32,3513
93.4,3439
93.48,3544
93.56,3557
93.64,3630
93.72,3743
93.8,3930
93.88,4062
93.96,4094
94.04,3787
94.12,3935
94.2,3971
94.28,3840
94.36,3772
94.44,3618
94.52,3473
94.6,3493
94.68,3447
94.76,3448
94.84,3545
94.92,3494
95,3487
95.08,3485
95.16,3539
95.24,3522
95.32,3411
95.4,3452
95.48,3465
95.56,3582
95.64,3472
95.72,3373
95.8,3454
95.88,3511
95.96,3524
96.04,3553
96.12,3541
96.2,3563
96.28,3505
96.36,3686
96.44,3695
96.52,3742
96.6,3624
96.68,3749
96.76,3673
96.84,3669
96.92,3704
97,3733
97.08,3837
97.16,3814
97.24,3971
97.32,4122
97.4,4087
97.48,4120
97.56,4003
97.64,4183
97.72,4274
97.8,4435
97.88,4180
97.96,3884
98.04,3964
98.12,3908
98.2,3929
98.28,3696
98.36,3665
98.44,3594
98.52,3603
98.6,3586
98.68,3690
98.76,3681
98.84,3797
98.92,3815
99,3870
99.08,3958
99.16,3920
99.24,3878
99.32,3730
99.4,3732
99.48,3730
99.56,3682
99.64,3676
99.72,3651
99.8,3481
99.88,3551
99.96,3530
100.04,3681
100.12,3588
100.2,3650
100.28,3678
100.36,3514
100.44,3587
100.52,3547
100.6,3659
100.68,3681
100.76,3751
100.84,3784
100.92,3741
101,3709
101.08,3859
101.16,4011
101.24,3923
101.32,3841
101.4,3809
101.48,3784
101.56,3782
101.64,3708
101.72,3688
101.8,3594
101.88,3565
101.96,3656
102.04,3492
102.12,3573
102.2,3537
102.28,3449
102.36,3464
102.44,3462
102.52,3458
102.6,3478
102.68,3536
102.76,3498
102.84,3597
102.92,3572
103,3573
103.08,3476
103.16,3530
103.24,3379
103.32,3550
103.4,3461
103.48,3556
103.56,3536
103.64,3537
103.72,3510
103.8,3555
103.88,3611
103.96,3604
104.04,3707
104.12,3750
104.2,3824
104.28,3912
104.36,3812
104.44,3903
104.52,3995
104.6,3994
104.68,3913
104.76,3878
104.84,3755
104.92,3807
105,3735
105.08,3732
105.16,3697
105.24,3729
105.32,3637
105.4,3635
105.48,3661
105.56,3622
105.64,3580
105.72,3554
105.8,3540
105.88,3481
105.96,3463
106.04,3589
106.12,3644
106.2,3484
106.28,3586
106.36,3447
106.44,3535
106.52,3520
106.6,3509
106.68,3505
106.76,3593
106.84,3459