File: data/xrd_icdd_PDF/00-061-0389 (PD3).csv
10.02,335
10.1,316
10.18,318
10.26,307
10.34,273
10.42,290
10.5,300
10.58,306
10.66,262
10.74,282
10.82,287
10.9,259
10.98,262
11.06,279
11.14,261
11.22,270
11.3,247
11.38,265
11.46,275
11.54,255
11.62,243
11.7,253
11.78,252
11.86,234
11.94,259
12.02,219
12.1,226
12.18,237
12.26,246
12.34,212
12.42,223
12.5,226
12.58,238
12.66,238
12.74,212
12.82,243
12.9,268
12.98,330
13.06,344
13.14,329
13.22,210
13.3,212
13.38,211
13.46,216
13.54,194
13.62,204
13.7,204
13.78,230
13.86,214
13.94,207
14.02,187
14.1,225
14.18,197
14.26,251
14.34,195
14.42,193
14.5,199
14.58,196
14.66,185
14.74,180
14.82,202
14.9,146
14.98,182
15.06,189
15.14,190
15.22,191
15.3,178
15.38,152
15.46,167
15.54,164
15.62,168
15.7,198
15.78,217
15.86,157
15.94,154
16.02,167
16.1,173
16.18,185
16.26,196
16.34,178
16.42,170
16.5,156
16.58,167
16.66,175
16.74,150
16.82,171
16.9,153
16.98,153
17.06,173
17.14,138
17.22,158
17.3,158
17.38,158
17.46,153
17.54,145
17.62,155
17.7,149
17.78,156
17.86,150
17.94,152
18.02,163
18.1,163
18.18,139
18.26,141
18.34,133
18.42,139
18.5,137
18.58,141
18.66,151
18.74,138
18.82,132
18.9,128
18.98,115
19.06,115
19.14,121
19.22,134
19.3,124
19.38,118
19.46,135
19.54,146
19.62,170
19.7,171
19.78,157
19.86,129
19.94,138
20.02,114
20.1,115
20.18,115
20.26,105
20.34,101
20.42,96
20.5,105
20.58,135
20.66,110
20.74,121
20.82,135
20.9,116
20.98,98
21.06,122
21.14,107
21.22,104
21.3,108
21.38,110
21.46,98
21.54,123
21.62,105
21.7,135
21.78,158
21.86,259
21.94,480
22.02,456
22.1,232
22.18,123
22.26,111
22.34,107
22.42,82
22.5,103
22.58,114
22.66,107
22.74,113
22.82,106
22.9,95
22.98,107
23.06,98
23.14,98
23.22,80
23.3,97
23.38,103
23.46,94
23.54,95
23.62,121
23.7,84
23.78,109
23.86,150
23.94,140
24.02,113
24.1,118
24.18,120
24.26,87
24.34,81
24.42,89
24.5,90
24.58,94
24.66,93
24.74,85
24.82,94
24.9,85
24.98,84
25.06,81
25.14,90
25.22,78
25.3,99
25.38,81
25.46,83
25.54,93
25.62,84
25.7,95
25.78,79
25.86,79
25.94,89
26.02,94
26.1,113
26.18,123
26.26,174
26.34,256
26.42,363
26.5,303
26.58,161
26.66,139
26.74,113
26.82,92
26.9,103
26.98,109
27.06,116
27.14,133
27.22,202
27.3,422
27.38,663
27.46,422
27.54,199
27.62,124
27.7,95
27.78,104
27.86,92
27.94,85
28.02,79
28.1,95
28.18,72
28.26,88
28.34,89
28.42,89
28.5,90
28.58,78
28.66,89
28.74,93
28.82,97
28.9,103
28.98,145
29.06,110
29.14,95
29.22,94
29.3,98
29.38,95
29.46,103
29.54,146
29.62,122
29.7,148
29.78,159
29.86,205
29.94,135
30.02,120
30.1,108
30.18,131
30.26,122
30.34,117
30.42,149
30.5,167
30.58,170
30.66,190
30.74,414
30.82,944
30.9,2969
30.98,4822
31.06,2705
31.14,873
31.22,609
31.3,755
31.38,698
31.46,551
31.54,640
31.62,1066
31.7,2009
31.78,3948
31.86,9128
31.94,13886
32.02,8418
32.1,2625
32.18,860
32.26,465
32.34,305
32.42,231
32.5,178
32.58,118
32.66,109
32.74,112
32.82,97
32.9,110
32.98,92
33.06,109
33.14,71
33.22,81
33.3,82
33.38,96
33.46,121
33.54,169
33.62,246
33.7,599
33.78,930
33.86,577
33.94,238
34.02,136
34.1,116
34.18,92
34.26,90
34.34,63
34.42,81
34.5,102
34.58,83
34.66,73
34.74,71
34.82,77
34.9,84
34.98,81
35.06,104
35.14,128
35.22,183
35.3,265
35.38,242
35.46,135
35.54,99
35.62,83
35.7,80
35.78,68
35.86,77
35.94,73
36.02,86
36.1,65
36.18,78
36.26,101
36.34,90
36.42,94
36.5,120
36.58,145
36.66,179
36.74,317
36.82,690
36.9,1740
36.98,4372
37.06,4434
37.14,2543
37.22,950
37.3,479
37.38,306
37.46,190
37.54,170
37.62,128
37.7,90
37.78,86
37.86,102
37.94,124
38.02,133
38.1,154
38.18,110
38.26,68
38.34,63
38.42,59
38.5,59
38.58,62
38.66,60
38.74,67
38.82,53
38.9,66
38.98,75
39.06,54
39.14,78
39.22,74
39.3,52
39.38,70
39.46,62
39.54,63
39.62,59
39.7,69
39.78,61
39.86,58
39.94,74
40.02,142
40.1,166
40.18,182
40.26,187
40.34,135
40.42,104
40.5,98
40.58,81
40.66,67
40.74,67
40.82,59
40.9,63
40.98,62
41.06,74
41.14,108
41.22,146
41.3,104
41.38,77
41.46,67
41.54,70
41.62,65
41.7,56
41.78,67
41.86,67
41.94,69
42.02,52
42.1,50
42.18,61
42.26,72
42.34,73
42.42,70
42.5,77
42.58,79
42.66,88
42.74,123
42.82,168
42.9,315
42.98,562
43.06,787
43.14,745
43.22,511
43.3,284
43.38,172
43.46,148
43.54,135
43.62,136
43.7,192
43.78,156
43.86,135
43.94,121
44.02,160
44.1,241
44.18,477
44.26,1432
44.34,4252
44.42,5468
44.5,4311
44.58,2075
44.66,804
44.74,375
44.82,235
44.9,262
44.98,221
45.06,194
45.14,141
45.22,133
45.3,105
45.38,93
45.46,73
45.54,74
45.62,77
45.7,78
45.78,121
45.86,158
45.94,267
46.02,464
46.1,749
46.18,663
46.26,376
46.34,197
46.42,150
46.5,136
46.58,115
46.66,142
46.74,97
46.82,122
46.9,134
46.98,183
47.06,209
47.14,304
47.22,373
47.3,398
47.38,277
47.46,228
47.54,105
47.62,95
47.7,91
47.78,94
47.86,66
47.94,73
48.02,54
48.1,54
48.18,58
48.26,56
48.34,66
48.42,59
48.5,61
48.58,61
48.66,59
48.74,63
48.82,55
48.9,63
48.98,93
49.06,110
49.14,199
49.22,288
49.3,342
49.38,429
49.46,309
49.54,218
49.62,141
49.7,103
49.78,71
49.86,76
49.94,74
50.02,114
50.1,137
50.18,124
50.26,110
50.34,90
50.42,63
50.5,54
50.58,62
50.66,65
50.74,49
50.82,70
50.9,51
50.98,81
51.06,69
51.14,71
51.22,70
51.3,105
51.38,154
51.46,262
51.54,392
51.62,492
51.7,407
51.78,287
51.86,176
51.94,128
52.02,116
52.1,104
52.18,113
52.26,108
52.34,126
52.42,188
52.5,195
52.58,169
52.66,129
52.74,104
52.82,88
52.9,116
52.98,194
53.06,154
53.14,164
53.22,113
53.3,77
53.38,60
53.46,62
53.54,68
53.62,67
53.7,56
53.78,61
53.86,75
53.94,72
54.02,75
54.1,83
54.18,94
54.26,114
54.34,143
54.42,182
54.5,183
54.58,196
54.66,212
54.74,156
54.82,135
54.9,129
54.98,134
55.06,146
55.14,166
55.22,177
55.3,211
55.38,229
55.46,343
55.54,520
55.62,1142
55.7,2786
55.78,4302
55.86,3402
55.94,2567
56.02,1257
56.1,506
56.18,268
56.26,193
56.34,141
56.42,131
56.5,170
56.58,133
56.66,131
56.74,157
56.82,174
56.9,175
56.98,144
57.06,160
57.14,142
57.22,215
57.3,317
57.38,504
57.46,863
57.54,1370
57.62,1787
57.7,1660
57.78,1158
57.86,709
57.94,336
58.02,210
58.1,126
58.18,87
58.26,80
58.34,93
58.42,69
58.5,66
58.58,51
58.66,61
58.74,70
58.82,66
58.9,70
58.98,51
59.06,64
59.14,70
59.22,64
59.3,100
59.38,98
59.46,106
59.54,85
59.62,73
59.7,64
59.78,65
59.86,63
59.94,60
60.02,69
60.1,60
60.18,64
60.26,42
60.34,60
60.42,38
60.5,50
60.58,58
60.66,42
60.74,51
60.82,55
60.9,55
60.98,55
61.06,64
61.14,67
61.22,77
61.3,53
61.38,127
61.46,146
61.54,124
61.62,130
61.7,115
61.78,113
61.86,157
61.94,152
62.02,178
62.1,239
62.18,233
62.26,176
62.34,150
62.42,100
62.5,82
62.58,67
62.66,80
62.74,62
62.82,66
62.9,52
62.98,84
63.06,67
63.14,64
63.22,74
63.3,93
63.38,111
63.46,171
63.54,295
63.62,415
63.7,388
63.78,324
63.86,223
63.94,159
64.02,133
64.1,121
64.18,120
64.26,102
64.34,142
64.42,201
64.5,375
64.58,937
64.66,1260
64.74,1164
64.82,989
64.9,660
64.98,368
65.06,250
65.14,146
65.22,120
65.3,86
65.38,87
65.46,72
65.54,72
65.62,71
65.7,60
65.78,43
65.86,70
65.94,61
66.02,64
66.1,70
66.18,60
66.26,50
66.34,88
66.42,74
66.5,87
66.58,125
66.66,176
66.74,229
66.82,350
66.9,493
66.98,420
67.06,334
67.14,265
67.22,178
67.3,156
67.38,166
67.46,111
67.54,127
67.62,107
67.7,63
67.78,69
67.86,76
67.94,68
68.02,53
68.1,64
68.18,73
68.26,69
68.34,107
68.42,141
68.5,223
68.58,268
68.66,295
68.74,209
68.82,175
68.9,135
68.98,79
69.06,61
69.14,61
69.22,70
69.3,75
69.38,65
69.46,61
69.54,77
69.62,78
69.7,70
69.78,89
69.86,78
69.94,91
70.02,116
70.1,103
70.18,64
70.26,74
70.34,60
70.42,50
70.5,43
70.58,40
70.66,61
70.74,61
70.82,69
70.9,73
70.98,66
71.06,92
71.14,106
71.22,124
71.3,86
71.38,97
71.46,61
71.54,65
71.62,80
71.7,70
71.78,65
71.86,71
71.94,58
72.02,39
72.1,45
72.18,42
72.26,50
72.34,53
72.42,59
72.5,61
72.58,77
72.66,106
72.74,135
72.82,192
72.9,255
72.98,237
73.06,238
73.14,198
73.22,207
73.3,270
73.38,392
73.46,439
73.54,398
73.62,380
73.7,340
73.78,407
73.86,472
73.94,667
74.02,657
74.1,620
74.18,565
74.26,393
74.34,262
74.42,146
74.5,107
74.58,74
74.66,71
74.74,71
74.82,81
74.9,116
74.98,135
75.06,141
75.14,144
75.22,113
75.3,117
75.38,86
75.46,61
75.54,70
75.62,55
75.7,46
75.78,47
75.86,49
75.94,54
76.02,50
76.1,72
76.18,61
76.26,70
76.34,73
76.42,69
76.5,89
76.58,92
76.66,106
76.74,148
76.82,270
76.9,424
76.98,534
77.06,459
77.14,386
77.22,345
77.3,222
77.38,155
77.46,113
77.54,89
77.62,90
77.7,78
77.78,93
77.86,97
77.94,124
78.02,152
78.1,165
78.18,183
78.26,231
78.34,193
78.42,179
78.5,194
78.58,160
78.66,147
78.74,131
78.82,106
78.9,110
78.98,124
79.06,90
79.14,115
79.22,135
79.3,183
79.38,230
79.46,289
79.54,361
79.62,339
79.7,316
79.78,265
79.86,238
79.94,176
80.02,115
80.1,96
80.18,73
80.26,93
80.34,77
80.42,73
80.5,68
80.58,61
80.66,61
80.74,72
80.82,77
80.9,107
80.98,123
81.06,118
81.14,95
81.22,74
81.3,84
81.38,81
81.46,71
81.54,52
81.62,56
81.7,68
81.78,49
81.86,61
81.94,58
82.02,42
82.1,56
82.18,49
82.26,44
82.34,49
82.42,49
82.5,50
82.58,47
82.66,53
82.74,58
82.82,74
82.9,98
82.98,127
83.06,144
83.14,166
83.22,150
83.3,135
83.38,113
83.46,109
83.54,87
83.62,112
83.7,133
83.78,141
83.86,200
83.94,260
84.02,214
84.1,180
84.18,166
84.26,128
84.34,95
84.42,74
84.5,62
84.58,50
84.66,54
84.74,44
84.82,52
84.9,64
84.98,67
85.06,53
85.14,56
85.22,62
85.3,72
85.38,95
85.46,110
85.54,104
85.62,126
85.7,77
85.78,101
85.86,82
85.94,75
86.02,100
86.1,88
86.18,106
86.26,128
86.34,139
86.42,141
86.5,204
86.58,212
86.66,224
86.74,253
86.82,261
86.9,223
86.98,192
87.06,216
87.14,200
87.22,197
87.3,191
87.38,155
87.46,134
87.54,141
87.62,101
87.7,91
87.78,67
87.86,66
87.94,62
88.02,61
88.1,50
88.18,59
88.26,50
88.34,66
88.42,76
88.5,75
88.58,63
88.66,70
88.74,67
88.82,57
88.9,51
88.98,41
89.06,89
89.14,56
89.22,97
89.3,77
89.38,81
89.46,104
89.54,121
89.62,157
89.7,146
89.78,143
89.86,117
89.94,114
90.02,110
90.1,99
90.18,98
90.26,122
90.34,158
90.42,283
90.5,451
90.58,656
90.66,624
90.74,577
90.82,557
90.9,487
90.98,396
91.06,276
91.14,199
91.22,142
91.3,121
91.38,91
91.46,101
91.54,91
91.62,93
91.7,110
91.78,156
91.86,183
91.94,256
92.02,422
92.1,532
92.18,667
92.26,578
92.34,505
92.42,434
92.5,393
92.58,287
92.66,206
92.74,148
92.82,107
92.9,90
92.98,84
93.06,68
93.14,70
93.22,71
93.3,74
93.38,69
93.46,73
93.54,66
93.62,83
93.7,67
93.78,71
93.86,74
93.94,75
94.02,96
94.1,80
94.18,85
94.26,120
94.34,129
94.42,120
94.5,129
94.58,141
94.66,190
94.74,208
94.82,247
94.9,217
94.98,182
95.06,182
95.14,170
95.22,161
95.3,132
95.38,144
95.46,136
95.54,149
95.62,174
95.7,190
95.78,229
95.86,222
95.94,260
96.02,282
96.1,276
96.18,237
96.26,213
96.34,197
96.42,182
96.5,149
96.58,137
96.66,110
96.74,84
96.82,78
96.9,61
96.98,66
97.06,66
97.14,63
97.22,83
97.3,103
97.38,124
97.46,131
97.54,112
97.62,99
97.7,121
97.78,117
97.86,93
97.94,104
98.02,124
98.1,127
98.18,164
98.26,228
98.34,224
98.42,260
98.5,235
98.58,241
98.66,223
98.74,198
98.82,136
98.9,120
98.98,93
99.06,85
99.14,64
99.22,74
99.3,60
99.38,55
99.46,57
99.54,44
99.62,55
99.7,55
99.78,55
99.86,49
99.94,52
100.02,40
100.1,47
100.18,47
100.26,54
100.34,54
100.42,45
100.5,45
100.58,51
100.66,39
100.74,52
100.82,37
100.9,54
100.98,48
101.06,50
101.14,48
101.22,52
101.3,46
101.38,42
101.46,35
101.54,46
101.62,62
101.7,65
101.78,69
101.86,78
101.94,99
102.02,116
102.1,109
102.18,111
102.26,123
102.34,104
102.42,110
102.5,102
102.58,91
102.66,95
102.74,82
102.82,98
102.9,128
102.98,119
103.06,157
103.14,147
103.22,210
103.3,175
103.38,189
103.46,177
103.54,147
103.62,163
103.7,123
103.78,141
103.86,98
103.94,101
104.02,85
104.1,73
104.18,83
104.26,95
104.34,83
104.42,94
104.5,94
104.58,113
104.66,103
104.74,95
104.82,90
104.9,99
104.98,90
105.06,96
105.14,73
105.22,78
105.3,62
105.38,66
105.46,68
105.54,50
105.62,76
105.7,65
105.78,71
105.86,60
105.94,78
106.02,76
106.1,62
106.18,63
106.26,65
106.34,73
106.42,72
106.5,89
106.58,110
106.66,131
106.74,129
106.82,134
106.9,173
106.98,191
107.06,276
107.14,329
107.22,398
107.3,429
107.38,437
107.46,385
107.54,317
107.62,328
107.7,278
107.78,262
107.86,222
107.94,179
108.02,128
108.1,120
108.18,83
108.26,101
108.34,96
108.42,90
108.5,89
108.58,77
108.66,71
108.74,66
108.82,63
108.9,66
108.98,67
109.06,68
109.14,73
109.22,71
109.3,64
109.38,69
109.46,40
109.54,63
109.62,67
109.7,55
109.78,51
109.86,61
109.94,60
110.02,74
110.1,73
110.18,81
110.26,125
110.34,114
110.42,95
110.5,131
110.58,105
110.66,126
110.74,105
110.82,100
110.9,80
110.98,93
111.06,80
111.14,71
111.22,79
111.3,36
111.38,76
111.46,82
111.54,107
111.62,116
111.7,114
111.78,122
111.86,150
111.94,133
112.02,166
112.1,155
112.18,157
112.26,161
112.34,160
112.42,167
112.5,162
112.58,159
112.66,199
112.74,184
112.82,203
112.9,172
112.98,155
113.06,153
113.14,137
113.22,129
113.3,124
113.38,109
113.46,92
113.54,80
113.62,55
113.7,67
113.78,67
113.86,58
113.94,70
114.02,91
114.1,60
114.18,54
114.26,69
114.34,78
114.42,71
114.5,87
114.58,112
114.66,114
114.74,112
114.82,97
114.9,111
114.98,113
115.06,106
115.14,102
115.22,144
115.3,164
115.38,248
115.46,266
115.54,308
115.62,368
115.7,339
115.78,345
115.86,312
115.94,305
116.02,304
116.1,294
116.18,68
116.26,179
116.34,187
116.42,141
116.5,127
116.58,120
116.66,90
116.74,103
116.82,90
116.9,67
116.98,84
117.06,60
117.14,91
117.22,94
117.3,78
117.38,80
117.46,78
117.54,107
117.62,84
117.7,106
117.78,104
117.86,123
117.94,137
118.02,93
118.1,138
118.18,115
118.26,96
118.34,108
118.42,90
118.5,112
118.58,69
118.66,60
118.74,69
118.82,70
118.9,71
118.98,71
119.06,55
119.14,48
119.22,70
119.3,77
119.38,80
119.46,73
119.54,76
119.62,83
119.7,107
119.78,107
119.86,90
119.94,114
120,93