File: data/xrd_icdd_PDF/00-066-0133 (PD3).csv
20,2516.6
20.03998,2515.6
20.07996,2511.7
20.11995,2512.4
20.15993,2490.4
20.19991,2484.1
20.23989,2516.4
20.27987,2494.9
20.31985,2501.1
20.35984,2520.1
20.39982,2481.3
20.4398,2502.8
20.47978,2502.6
20.51976,2470.1
20.55975,2496.3
20.59973,2487.9
20.63971,2460.5
20.67969,2527.8
20.71967,2494.9
20.75965,2568
20.79964,2585.3
20.83962,2657.4
20.8796,2682.1
20.91958,2788.2
20.95956,2916.8
20.99955,3124.7
21.03953,3508.4
21.07951,3672.4
21.11949,3316.1
21.15947,2899.6
21.19945,2739.9
21.23944,2698.6
21.27942,2707
21.3194,2750.3
21.35938,2833.2
21.39936,2939.5
21.43934,3096
21.47933,3392.6
21.51931,3612.5
21.55929,3316.3
21.59927,2935
21.63925,2689
21.67924,2585.1
21.71922,2562
21.7592,2562.2
21.79918,2537.9
21.83916,2513.1
21.87914,2527
21.91913,2515.8
21.95911,2515.3
21.99909,2522.7
22.03907,2484.4
22.07905,2485.2
22.11904,2510.5
22.15902,2527
22.199,2504
22.23898,2498.9
22.27896,2500.7
22.31894,2509.4
22.35893,2485.2
22.39891,2506.9
22.43889,2476.8
22.47887,2533.6
22.51885,2480.8
22.55884,2494.8
22.59882,2481.8
22.6388,2495.2
22.67878,2485.6
22.71876,2527.8
22.75874,2524.5
22.79873,2549.4
22.83871,2537.7
22.87869,2527.7
22.91867,2557.8
22.95865,2551.5
22.99864,2553.4
23.03862,2554.8
23.0786,2551.6
23.11858,2568.8
23.15856,2550.6
23.19854,2557
23.23853,2536.7
23.27851,2555.1
23.31849,2544.9
23.35847,2529
23.39845,2546.9
23.43843,2508.2
23.47842,2533.9
23.5184,2492.3
23.55838,2511.6
23.59836,2495.2
23.63834,2503
23.67833,2535.3
23.71831,2503.7
23.75829,2526.8
23.79827,2535.3
23.83825,2497.4
23.87823,2501
23.91822,2492.2
23.9582,2497.5
23.99818,2511.2
24.03816,2496.8
24.07814,2513
24.11813,2507
24.15811,2554.4
24.19809,2538.5
24.23807,2527.5
24.27805,2537.7
24.31803,2511
24.35802,2562.6
24.398,2493.5
24.43798,2555.6
24.47796,2509.2
24.51794,2544.7
24.55793,2514.7
24.59791,2536.5
24.63789,2553.8
24.67787,2537.4
24.71785,2547.7
24.75783,2557.1
24.79782,2536.9
24.8378,2520.4
24.87778,2512.8
24.91776,2529.7
24.95774,2548.4
24.99772,2553.5
25.03771,2554.1
25.07769,2541.6
25.11767,2564.9
25.15765,2531.5
25.19763,2569.2
25.23762,2556.5
25.2776,2561.1
25.31758,2530.7
25.35756,2544
25.39754,2539.1
25.43752,2559.8
25.47751,2544.3
25.51749,2541.2
25.55747,2519.5
25.59745,2553.9
25.63743,2527
25.67742,2537.1
25.7174,2523.3
25.75738,2516.6
25.79736,2543.5
25.83734,2527.9
25.87732,2525.5
25.91731,2543.2
25.95729,2556.1
25.99727,2547.8
26.03725,2537.1
26.07723,2547
26.11722,2537.5
26.1572,2538.7
26.19718,2534.1
26.23716,2562.7
26.27714,2536.5
26.31712,2543.4
26.35711,2579.7
26.39709,2560.6
26.43707,2552.5
26.47705,2574.8
26.51703,2569.4
26.55702,2581.5
26.597,2594.3
26.63698,2578.5
26.67696,2604.3
26.71694,2622.4
26.75692,2643.6
26.79691,2688.1
26.83689,2703.6
26.87687,2752.7
26.91685,2866.3
26.95683,3070.2
26.99682,3370.2
27.0368,3787.5
27.07678,3776.4
27.11676,3424.2
27.15674,3084.8
27.19672,2797.7
27.23671,2700.7
27.27669,2675.4
27.31667,2611.4
27.35665,2623.7
27.39663,2623.7
27.43661,2601.1
27.4766,2598.1
27.51658,2603.6
27.55656,2580.3
27.59654,2564.4
27.63652,2566.7
27.67651,2562.9
27.71649,2610.8
27.75647,2584.9
27.79645,2578.5
27.83643,2584
27.87641,2571.6
27.9164,2561
27.95638,2577.1
27.99636,2561.4
28.03634,2564.1
28.07632,2587.3
28.11631,2573.7
28.15629,2557.7
28.19627,2560.7
28.23625,2591.4
28.27623,2587.9
28.31621,2560.1
28.3562,2546
28.39618,2566.2
28.43616,2594.7
28.47614,2572.4
28.51612,2577.2
28.55611,2590.7
28.59609,2582.9
28.63607,2595.8
28.67605,2576.1
28.71603,2578.5
28.75601,2572.2
28.796,2571.4
28.83598,2618.5
28.87596,2591.7
28.91594,2585.9
28.95592,2615.3
28.99591,2585.8
29.03589,2592.9
29.07587,2593.6
29.11585,2616.9
29.15583,2596.9
29.19581,2622.8
29.2358,2630.9
29.27578,2643.3
29.31576,2627.7
29.35574,2625.8
29.39572,2618.7
29.4357,2593.2
29.47569,2634.5
29.51567,2640.4
29.55565,2645.7
29.59563,2644
29.63561,2616.4
29.6756,2659.8
29.71558,2623.6
29.75556,2630.5
29.79554,2629.1
29.83552,2628.1
29.8755,2642.9
29.91549,2643.6
29.95547,2624.5
29.99545,2629.2
30.03543,2627.1
30.07541,2601.5
30.1154,2647.1
30.15538,2663
30.19536,2656.1
30.23534,2602.5
30.27532,2640.9
30.3153,2622.6
30.35529,2645.1
30.39527,2630.1
30.43525,2655.5
30.47523,2619.1
30.51521,2651
30.5552,2646.2
30.59518,2636.4
30.63516,2676.5
30.67514,2693.1
30.71512,2701.4
30.7551,2699.1
30.79509,2709.3
30.83507,2700.7
30.87505,2686.5
30.91503,2708.5
30.95501,2719.1
30.99499,2723.7
31.03498,2758.2
31.07496,2775.2
31.11494,2787.1
31.15492,2855.7
31.1949,2949.2
31.23489,3034.3
31.27487,3224
31.31485,3514.5
31.35483,4075
31.39481,4952.6
31.43479,6433
31.47478,9034.4
31.51476,13467.3
31.55474,20242.3
31.59472,24850.8
31.6347,19450.1
31.67469,15416.1
31.71467,9337.2
31.75465,5580.9
31.79463,4248.7
31.83461,3710.2
31.87459,3411
31.91458,3242.2
31.95456,3146.4
31.99454,3076.3
32.03452,3030.9
32.0745,2967.8
32.11449,2963.4
32.15447,2927.8
32.19445,2877.3
32.23443,2889.1
32.27441,2868.1
32.31439,2912.8
32.35438,2911.3
32.39436,2998.8
32.43434,3058.2
32.47432,3232.8
32.5143,3649.8
32.55429,4304.1
32.59427,5519.5
32.63425,7668.4
32.67423,11773.6
32.71421,18745
32.75419,24037.4
32.79418,17983.5
32.83416,14966.5
32.87414,9135.9
32.91412,5422.5
32.9541,4215
32.99408,3711.3
33.03407,3398.2
33.07405,3251.3
33.11403,3156.6
33.15401,3059.9
33.19399,3023.6
33.23398,2987.9
33.27396,2946.4
33.31394,2896.9
33.35392,2885.9
33.3939,2901.4
33.43388,2901.1
33.47387,2914.7
33.51385,2921.2
33.55383,2951.9
33.59381,3039.4
33.63379,3148.8
33.67378,3401.7
33.71376,3884.6
33.75374,4882.2
33.79372,6664
33.8337,9768.6
33.87368,15974.7
33.91367,25881.4
33.95365,27544
33.99363,20704.3
34.03361,17513.2
34.07359,10063.5
34.11358,6286
34.15356,4763.6
34.19354,4101.9
34.23352,3723.6
34.2735,3538.3
34.31348,3356
34.35347,3251.2
34.39345,3189.3
34.43343,3118.4
34.47341,3088.2
34.51339,3084.9
34.55338,3011.2
34.59336,2975.8
34.63334,2956.2
34.67332,2904.8
34.7133,2886.6
34.75328,2859.4
34.79327,2836.7
34.83325,2809
34.87323,2805.7
34.91321,2777.9
34.95319,2823.9
34.99318,2800.9
35.03316,2827.8
35.07314,2866.8
35.11312,2868.5
35.1531,2891.9
35.19308,2919.1
35.23307,2931.1
35.27305,2983.4
35.31303,2982
35.35301,3046.5
35.39299,3113
35.43297,3216.3
35.47296,3282.2
35.51294,3405.9
35.55292,3529
35.5929,3730
35.63288,4016.8
35.67287,4475.1
35.71285,5316
35.75283,6687.6
35.79281,9036.5
35.83279,12923.3
35.87277,19637.3
35.91276,30941.6
35.95274,45896
35.99272,50179.2
36.0327,38183.4
36.07268,32378.9
36.11267,20459
36.15265,11398.9
36.19263,7820
36.23261,6226.2
36.27259,5391.6
36.31257,4896.3
36.35256,4559.8
36.39254,4301.2
36.43252,4148.2
36.4725,4017.3
36.51248,3815.5
36.55247,3743.1
36.59245,3642.7
36.63243,3543.5
36.67241,3539.3
36.71239,3536.3
36.75237,3652.3
36.79236,3955.5
36.83234,4498.1
36.87232,5605
36.9123,7604.1
36.95228,11298.1
36.99227,16772.2
37.03225,17945.1
37.07223,13600.8
37.11221,12167.1
37.15219,8277.5
37.19217,5340.5
37.23216,4283.8
37.27214,3761.4
37.31212,3423.5
37.3521,3276.7
37.39208,3187.9
37.43206,3090.7
37.47205,2999.5
37.51203,2973.4
37.55201,2910.1
37.59199,2894.9
37.63197,2851.9
37.67196,2832.5
37.71194,2827.2
37.75192,2775.4
37.7919,2768
37.83188,2749.1
37.87186,2715.8
37.91185,2733.2
37.95183,2698.2
37.99181,2703.9
38.03179,2731
38.07177,2692
38.11176,2672.4
38.15174,2732.5
38.19172,2692
38.2317,2686.3
38.27168,2706.1
38.31166,2693.1
38.35165,2672.4
38.39163,2656.1
38.43161,2673.4
38.47159,2666.6
38.51157,2693.9
38.55156,2688
38.59154,2655.9
38.63152,2669.9
38.6715,2652.2
38.71148,2669.7
38.75146,2683.4
38.79145,2668.9
38.83143,2702
38.87141,2660.8
38.91139,2655.6
38.95137,2656.2
38.99135,2647.7
39.03134,2670.8
39.07132,2644.3
39.1113,2663.1
39.15128,2644.8
39.19126,2652.4
39.23125,2669.3
39.27123,2642.7
39.31121,2671.9
39.35119,2683.2
39.39117,2693.2
39.43115,2706
39.47114,2743.9
39.51112,2787.4
39.5511,2782.5
39.59108,2772
39.63106,2735.6
39.67105,2703.6
39.71103,2689.5
39.75101,2675.3
39.79099,2671.7
39.83097,2663.6
39.87095,2678
39.91094,2669.5
39.95092,2671.3
39.9909,2635.9
40.03088,2639.2
40.07086,2645.6
40.11085,2664.3
40.15083,2657.5
40.19081,2647.9
40.23079,2677.9
40.27077,2730.3
40.31075,2714
40.35074,2677.3
40.39072,2658.7
40.4307,2667.3
40.47068,2642.7
40.51066,2647.8
40.55065,2657
40.59063,2665.1
40.63061,2662.7
40.67059,2624.3
40.71057,2640.2
40.75055,2664.7
40.79054,2640.8
40.83052,2651
40.8705,2647
40.91048,2650.4
40.95046,2663.7
40.99045,2641.7
41.03043,2620.7
41.07041,2637.8
41.11039,2661.9
41.15037,2652.2
41.19035,2657.3
41.23034,2660.8
41.27032,2635.7
41.3103,2648.6
41.35028,2671.3
41.39026,2665.2
41.43024,2649.7
41.47023,2640.6
41.51021,2636.4
41.55019,2645.6
41.59017,2638.2
41.63015,2646.6
41.67014,2658.7
41.71012,2677.8
41.7501,2656.4
41.79008,2641.3
41.83006,2680.5
41.87004,2695.4
41.91003,2709.5
41.95001,2664.7
41.98999,2714.6
42.02997,2691.6
42.06995,2732.2
42.10994,2718.4
42.14992,2732.7
42.1899,2767.6
42.22988,2739.3
42.26986,2752
42.30984,2735.1
42.34983,2751.8
42.38981,2747.4
42.42979,2686.1
42.46977,2713
42.50975,2667
42.54974,2698
42.58972,2677.4
42.6297,2640.7
42.66968,2661.4
42.70966,2670.5
42.74964,2650.2
42.78963,2659.9
42.82961,2639.1
42.86959,2648.1
42.90957,2677.4
42.94955,2636.5
42.98953,2623.3
43.02952,2633.3
43.0695,2619.2
43.10948,2634.7
43.14946,2647.9
43.18944,2629
43.22943,2608.1
43.26941,2609.5
43.30939,2641.2
43.34937,2625.5
43.38935,2667.4
43.42933,2623.7
43.46932,2624.1
43.5093,2628.1
43.54928,2616.8
43.58926,2615.6
43.62924,2627.4
43.66923,2636.7
43.70921,2683
43.74919,2635.4
43.78917,2681.5
43.82915,2702.7
43.86913,2699.1
43.90912,2686.8
43.9491,2660.7
43.98908,2655.3
44.02906,2650.6
44.06904,2623.2
44.10903,2656.6
44.14901,2643.6
44.18899,2642.6
44.22897,2671.5
44.26895,2740.4
44.30893,2691
44.34892,2766.1
44.3889,2804.7
44.42888,2902.3
44.46886,2983.5
44.50884,2957.6
44.54883,2876.2
44.58881,2845.3
44.62879,2791.5
44.66877,2677.4
44.70875,2652.1
44.74873,2647.7
44.78872,2644.4
44.8287,2615.1
44.86868,2629.1
44.90866,2615.4
44.94864,2652.6
44.98862,2641.7
45.02861,2611.1
45.06859,2631.2
45.10857,2630.8
45.14855,2589.8
45.18853,2616.3
45.22852,2611.7
45.2685,2621.6
45.30848,2641.1
45.34846,2642.6
45.38844,2631.5
45.42842,2636.2
45.46841,2635.7
45.50839,2637.7
45.54837,2617.3
45.58835,2657.8
45.62833,2660.1
45.66832,2624.6
45.7083,2642.4
45.74828,2592
45.78826,2636.4
45.82824,2629.9
45.86822,2650.6
45.90821,2637.7
45.94819,2631.6
45.98817,2620.6
46.02815,2611.6
46.06813,2649
46.10812,2658.5
46.1481,2658.8
46.18808,2643.4
46.22806,2673
46.26804,2670.6
46.30802,2642.7
46.34801,2673.7
46.38799,2649.2
46.42797,2670
46.46795,2679.1
46.50793,2684.4
46.54792,2697.3
46.5879,2718.4
46.62788,2777
46.66786,2776.6
46.70784,2819.4
46.74782,2893.2
46.78781,3046.1
46.82779,3174.2
46.86777,3495.3
46.90775,4086.4
46.94773,5096.1
46.98772,6751.4
47.0277,8572.1
47.06768,8005
47.10766,6602.4
47.14764,6453.1
47.18762,5691
47.22761,4327.5
47.26759,3632.8
47.30757,3302.5
47.34755,3135
47.38753,3081.1
47.42751,3017.2
47.4675,3006.9
47.50748,3009.9
47.54746,3065.4
47.58744,3235.3
47.62742,3395
47.66741,3568.9
47.70739,3702.4
47.74737,4130.2
47.78735,5091.6
47.82733,6643.4
47.86731,8305.3
47.9073,7536.4
47.94728,6258.9
47.98726,6166.1
48.02724,5508.2
48.06722,4261.1
48.10721,3578.9
48.14719,3263.5
48.18717,3090.6
48.22715,2994.2
48.26713,2901.1
48.30711,2855.4
48.3471,2858.3
48.38708,2772.5
48.42706,2733.6
48.46704,2745.4
48.50702,2728.9
48.54701,2762.5
48.58699,2694.9
48.62697,2694
48.66695,2685.9
48.70693,2688.5
48.74691,2675.6
48.7869,2684.6
48.82688,2664.7
48.86686,2676.3
48.90684,2661.8
48.94682,2651.9
48.9868,2648.8
49.02679,2653.9
49.06677,2635.1
49.10675,2616.8
49.14673,2647.2
49.18671,2642.1
49.2267,2606.8
49.26668,2627.9
49.30666,2633.9
49.34664,2600.9
49.38662,2630.8
49.4266,2623.7
49.46659,2627.2
49.50657,2635.1
49.54655,2640.7
49.58653,2652.9
49.62651,2612.9
49.6665,2647.2
49.70648,2660.1
49.74646,2669.3
49.78644,2684.2
49.82642,2645.1
49.8664,2683.6
49.90639,2733.7
49.94637,2745.6
49.98635,2715.8
50.02633,2725.5
50.06631,2698.3
50.1063,2709.1
50.14628,2694.3
50.18626,2684.9
50.22624,2654.8
50.26622,2641.7
50.3062,2654.9
50.34619,2642.5
50.38617,2641.4
50.42615,2630.2
50.46613,2609
50.50611,2652.4
50.5461,2631.4
50.58608,2639.6
50.62606,2640.2
50.66604,2607.3
50.70602,2661.3
50.746,2647.4
50.78599,2643.4
50.82597,2651.6
50.86595,2644.3
50.90593,2662.7
50.94591,2663.6
50.98589,2648
51.02588,2654.4
51.06586,2640.9
51.10584,2644.6
51.14582,2629.1
51.1858,2640
51.22579,2634.6
51.26577,2638.9
51.30575,2657.2
51.34573,2632.9
51.38571,2634.1
51.42569,2657.9
51.46568,2638.2
51.50566,2637.3
51.54564,2623.6
51.58562,2667.7
51.6256,2656.5
51.66559,2638.2
51.70557,2642.1
51.74555,2641.6
51.78553,2646.3
51.82551,2672.8
51.86549,2646.3
51.90548,2662.3
51.94546,2665.2
51.98544,2643.6
52.02542,2628.2
52.0654,2685.2
52.10539,2673.2
52.14537,2665
52.18535,2638.9
52.22533,2673
52.26531,2663.4
52.30529,2659.8
52.34528,2669.8
52.38526,2644.2
52.42524,2665.8
52.46522,2654.4
52.5052,2671.8
52.54519,2646.8
52.58517,2641.4
52.62515,2670
52.66513,2669.6
52.70511,2653.8
52.74509,2648.5
52.78508,2668.5
52.82506,2658.7
52.86504,2641.7
52.90502,2668.7
52.945,2700.8
52.98499,2669
53.02497,2675.7
53.06495,2709.9
53.10493,2695.9
53.14491,2711.6
53.18489,2753.4
53.22488,2760.3
53.26486,2822.6
53.30484,2961.9
53.34482,3042.2
53.3848,2946.3
53.42478,2884.3
53.46477,2892.9
53.50475,2879.3
53.54473,2747.6
53.58471,2724.5
53.62469,2709.1
53.66468,2703.3
53.70466,2692.1
53.74464,2729.1
53.78462,2763.2
53.8246,2801.2
53.86458,2832
53.90457,2781.2
53.94455,2749.1
53.98453,2767
54.02451,2777.3
54.06449,2742.2
54.10448,2711.8
54.14446,2708
54.18444,2701
54.22442,2711.7
54.2644,2662.2
54.30438,2689
54.34437,2656.7
54.38435,2671.9
54.42433,2689.1
54.46431,2706.7
54.50429,2693.2
54.54428,2680.6
54.58426,2724.3
54.62424,2691.2
54.66422,2719.6
54.7042,2727.7
54.74418,2718.2
54.78417,2729.6
54.82415,2725.7
54.86413,2763.5
54.90411,2801.5
54.94409,2851.5
54.98407,2936.4
55.02406,3080
55.06404,3219.7
55.10402,3171.1
55.144,3170.3
55.18398,3245.7
55.22397,3306.4
55.26395,3358.5
55.30393,3521.5
55.34391,3835.2
55.38389,4536.4
55.42387,5796.3
55.46386,7852.1
55.50384,9743.8
55.54382,8550.5
55.5838,6544
55.62378,6527.8
55.66377,6597.4
55.70375,5186.6
55.74373,3895.3
55.78371,3364
55.82369,3154.3
55.86367,2995.4
55.90366,2942.7
55.94364,2915.3
55.98362,2826
56.0236,2841.5
56.06358,2800.4
56.10357,2795
56.14355,2814.3
56.18353,2803.4
56.22351,2774.7
56.26349,2804.9
56.30347,2817.6
56.34346,2817.1
56.38344,2801.6
56.42342,2788.6
56.4634,2765.2
56.50338,2774.4
56.54337,2820.9
56.58335,2870.5
56.62333,2888
56.66331,2921.5
56.70329,2849.7
56.74327,2818.6
56.78326,2840.5
56.82324,2825.4
56.86322,2824.1
56.9032,2811.7
56.94318,2808
56.98316,2808.5
57.02315,2795.1
57.06313,2814.7
57.10311,2811.1
57.14309,2811.1
57.18307,2851.6
57.22306,2875.6
57.26304,2895.5
57.30302,2945.2
57.343,3000.5
57.38298,3091.3
57.42296,3229.3
57.46295,3394.2
57.50293,3661.8
57.54291,4059
57.58289,4733.8
57.62287,6100.3
57.66286,8324.9
57.70284,11354.4
57.74282,11979.7
57.7828,9255.1
57.82278,8119.5
57.86276,8453.8
57.90275,7901.9
57.94273,5866
57.98271,4576.4
58.02269,3927
58.06267,3562.7
58.10266,3371.4
58.14264,3265.5
58.18262,3126.6
58.2226,3059.6
58.26258,3015.6
58.30256,2938
58.34255,2929.8
58.38253,2890.5
58.42251,2873.7
58.46249,2839.7
58.50247,2852.8
58.54246,2867.5
58.58244,2793.9
58.62242,2783.5
58.6624,2806.3
58.70238,2787.5
58.74236,2747.3
58.78235,2750.7
58.82233,2743.8
58.86231,2739.3
58.90229,2706.4
58.94227,2766.2
58.98226,2705.7
59.02224,2737.7
59.06222,2715.3
59.1022,2720.4
59.14218,2722.5
59.18216,2772.6
59.22215,2753.6
59.26213,2755
59.30211,2742.1
59.34209,2750.1
59.38207,2728.5
59.42205,2724.2
59.46204,2765
59.50202,2743
59.542,2722.5
59.58198,2738.1
59.62196,2746.7
59.66195,2745.8
59.70193,2759.1
59.74191,2746.6
59.78189,2689.8
59.82187,2727.9
59.86185,2727.8
59.90184,2710
59.94182,2762.4
59.9818,2749.5
60.02178,2754.7
60.06176,2706.2
60.10175,2737.1
60.14173,2708.9
60.18171,2752.7
60.22169,2779.8
60.26167,2783.6
60.30165,2801.3
60.34164,2806.7
60.38162,2836.8
60.4216,2885.6
60.46158,2995
60.50156,3135.5
60.54155,3327.2
60.58153,3412.2
60.62151,3221.9
60.66149,3142.8
60.70147,3126.5
60.74145,3135
60.78144,3027.5
60.82142,2905
60.8614,2899.9
60.90138,2818
60.94136,2869.8
60.98134,2821
61.02133,2820.1
61.06131,2854.3
61.10129,2827.8
61.14127,2846.9
61.18125,2823.4
61.22124,2866.3
61.26122,2882.5
61.3012,2879.8
61.34118,2886.1
61.38116,2885.5
61.42114,2891.8
61.46113,2886.6
61.50111,2922.6
61.54109,2970.6
61.58107,2960.3
61.62105,3021.7
61.66104,3063
61.70102,3157.4
61.741,3268.8
61.78098,3455.5
61.82096,3696.3
61.86094,4001
61.90093,4680.1
61.94091,5854.9
61.98089,7982.3
62.02087,10998
62.06085,12370
62.10084,10020
62.14082,8296.6
62.1808,8283.9
62.22078,8718.5
62.26076,7416.5
62.30074,5709
62.34073,4669.4
62.38071,4142.8
62.42069,3825.3
62.46067,3655
62.50065,3576
62.54064,3538.5
62.58062,3652
62.6206,3902.7
62.66058,4438.1
62.70056,5282.2
62.74054,6234.9
62.78053,5845.3
62.82051,4961.6
62.86049,4698.5
62.90047,4888.8
62.94045,4752.1
62.98043,4076.4
63.02042,3578
63.0604,3345.7
63.10038,3192
63.14036,3084.5
63.18034,3042.8
63.22033,2962
63.26031,2925.9
63.30029,2922.5
63.34027,2854
63.38025,2868.2
63.42023,2861.9
63.46022,2875.9
63.5002,2880.5
63.54018,2885.4
63.58016,2924.4
63.62014,2859.7
63.66013,2880
63.70011,2831.3
63.74009,2854.4
63.78007,2845.5
63.82005,2832
63.86003,2806.1
63.90002,2785.7
63.94,2777.5
63.97998,2767.1
64.01996,2763.9
64.05994,2763.1
64.09993,2755.7
64.13991,2748.4
64.17989,2757.1
64.21987,2754.6
64.25985,2739.3
64.29983,2754.4
64.33982,2740.3
64.3798,2756.8
64.41978,2787.6
64.45976,2769.6
64.49974,2762.3
64.53973,2816.2
64.57971,2803.9
64.61969,2801.6
64.65967,2804.7
64.69965,2865.2
64.73963,2954.3
64.77962,2891.8
64.8196,2842
64.85958,2829.1
64.89956,2863.6
64.93954,2878
64.97952,2788.5
65.01951,2809.1
65.05949,2765.9
65.09947,2777.6
65.13945,2754
65.17943,2759.2
65.21942,2742.4
65.2594,2750.4
65.29938,2773.4
65.33936,2757.8
65.37934,2764.3
65.41932,2772.1
65.45931,2768.2
65.49929,2790.1
65.53927,2804.8
65.57925,2854
65.61923,2869.2
65.65922,2948
65.6992,2984.5
65.73918,3032.9
65.77916,3180.2
65.81914,3355.2
65.85912,3741
65.89911,4199
65.93909,4850.1
65.97907,4911.5
66.01905,4357.8
66.05903,3980.8
66.09902,3986.9
66.139,4102.2
66.17898,3865.3
66.21896,3476.7
66.25894,3280.9
66.29892,3196.1
66.33891,3153.9
66.37889,3163.9
66.41887,3218.9
66.45885,3343
66.49883,3550
66.53882,3945.3
66.5788,4537
66.61878,5497.9
66.65876,6570.3
66.69874,6448.9
66.73872,5347.1
66.77871,4859.8
66.81869,4899.4
66.85867,5069.6
66.89865,4552.5
66.93863,3820.8
66.97862,3416
67.0186,3192.1
67.05858,3043.4
67.09856,2993.8
67.13854,2926.6
67.17852,2918.8
67.21851,2872.6
67.25849,2839.8
67.29847,2853.5
67.33845,2810.2
67.37843,2811.3
67.41841,2816
67.4584,2826.9
67.49838,2796.5
67.53836,2812.2
67.57834,2783.8
67.61832,2799.7
67.65831,2784.5
67.69829,2801.8
67.73827,2795.2
67.77825,2783.7
67.81823,2804.4
67.85821,2826.4
67.8982,2834.7
67.93818,2888
67.97816,2899.8
68.01814,2956.7
68.05812,2976.3
68.09811,3081.4
68.13809,3109
68.17807,3096.8
68.21805,3156.5
68.25803,3224.5
68.29801,3380.4
68.338,3470.6
68.37798,3618.5
68.41796,3877.8
68.45794,4318.4
68.49792,4997.9
68.53791,6156.6
68.57789,7901.3
68.61787,9586.7
68.65785,10420
68.69783,9735
68.73781,8186.8
68.7778,7595.1
68.81778,7621.4
68.85776,7371.1
68.89774,6443.9
68.93772,5164.2
68.97771,4392.5
69.01769,3983.6
69.05767,3700.3
69.09765,3561.9
69.13763,3509.9
69.17761,3391.4
69.2176,3263.7
69.25758,3154.8
69.29756,3085.4
69.33754,3108.6
69.37752,3052.8
69.4175,2991.7
69.45749,2931
69.49747,2860.1
69.53745,2876.9
69.57743,2838.2
69.61741,2837.8
69.6574,2796.2
69.69738,2786.2
69.73736,2776.7
69.77734,2771
69.81732,2781.7
69.8573,2740.2
69.89729,2741.5
69.93727,2736.2
69.97725,2726.8