File: data/xrd_icdd_PDF/00-061-0133 (PD3).csv
5,304
5.08,324
5.16,294
5.24,262
5.32,262
5.4,262
5.48,244
5.56,255
5.64,262
5.72,260
5.8,248
5.88,198
5.96,242
6.04,207
6.12,228
6.2,216
6.28,184
6.36,170
6.44,159
6.52,212
6.6,207
6.68,186
6.76,170
6.84,179
6.92,179
7,174
7.08,170
7.16,168
7.24,166
7.32,156
7.4,169
7.48,168
7.56,163
7.64,170
7.72,154
7.8,147
7.88,156
7.96,150
8.04,133
8.12,133
8.2,147
8.28,153
8.36,151
8.44,152
8.52,145
8.6,147
8.68,150
8.76,138
8.84,138
8.92,133
9,129
9.08,143
9.16,137
9.24,143
9.32,138
9.4,124
9.48,120
9.56,127
9.64,124
9.72,138
9.8,124
9.88,106
9.96,120
10.04,138
10.12,113
10.2,117
10.28,106
10.36,104
10.44,120
10.52,110
10.6,101
10.68,120
10.76,113
10.84,106
10.92,110
11,87
11.08,97
11.16,97
11.24,78
11.32,90
11.4,97
11.48,97
11.56,78
11.64,83
11.72,90
11.8,78
11.88,97
11.96,85
12.04,87
12.12,71
12.2,71
12.28,92
12.36,74
12.44,87
12.52,81
12.6,60
12.68,64
12.76,67
12.84,64
12.92,71
13,69
13.08,60
13.16,55
13.24,76
13.32,64
13.4,69
13.48,55
13.56,67
13.64,69
13.72,69
13.8,60
13.88,74
13.96,46
14.04,60
14.12,64
14.2,83
14.28,78
14.36,67
14.44,55
14.52,60
14.6,53
14.68,74
14.76,64
14.84,64
14.92,55
15,58
15.08,55
15.16,60
15.24,44
15.32,55
15.4,62
15.48,51
15.56,69
15.64,64
15.72,64
15.8,55
15.88,55
15.96,51
16.04,55
16.12,69
16.2,64
16.28,69
16.36,71
16.44,74
16.52,60
16.6,60
16.68,55
16.76,69
16.84,41
16.92,51
17,37
17.08,46
17.16,44
17.24,51
17.32,58
17.4,41
17.48,53
17.56,58
17.64,60
17.72,76
17.8,60
17.88,55
17.96,48
18.04,51
18.12,46
18.2,53
18.28,48
18.36,41
18.44,60
18.52,46
18.6,44
18.68,51
18.76,51
18.84,51
18.92,51
19,58
19.08,51
19.16,51
19.24,55
19.32,41
19.4,46
19.48,55
19.56,46
19.64,41
19.72,55
19.8,51
19.88,41
19.96,62
20.04,62
20.12,41
20.2,41
20.28,51
20.36,48
20.44,46
20.52,46
20.6,39
20.68,46
20.76,46
20.84,46
20.92,46
21,41
21.08,46
21.16,51
21.24,58
21.32,55
21.4,51
21.48,53
21.56,74
21.64,83
21.72,143
21.8,267
21.88,428
21.96,345
22.04,108
22.12,76
22.2,60
22.28,60
22.36,55
22.44,60
22.52,46
22.6,51
22.68,51
22.76,60
22.84,69
22.92,76
23,55
23.08,67
23.16,66
23.24,50
23.32,57
23.4,62
23.48,73
23.56,41
23.64,51
23.72,60
23.8,58
23.88,46
23.96,62
24.04,51
24.12,53
24.2,51
24.28,62
24.36,44
24.44,64
24.52,48
24.6,60
24.68,60
24.76,64
24.84,58
24.92,39
25,51
25.08,37
25.16,62
25.24,92
25.32,71
25.4,55
25.48,69
25.56,67
25.64,51
25.72,41
25.8,69
25.88,60
25.96,71
26.04,81
26.12,60
26.2,66
26.28,69
26.36,41
26.44,60
26.52,71
26.6,78
26.68,81
26.76,69
26.84,62
26.92,51
27,67
27.08,58
27.16,64
27.24,73
27.32,83
27.4,65
27.48,72
27.56,79
27.64,74
27.72,67
27.8,69
27.88,85
27.96,74
28.04,88
28.12,90
28.2,87
28.28,85
28.36,84
28.44,85
28.52,77
28.6,92
28.68,92
28.76,90
28.84,99
28.92,85
29,80
29.08,93
29.16,101
29.24,98
29.32,92
29.4,85
29.48,108
29.56,110
29.64,111
29.72,96
29.8,119
29.88,112
29.96,123
30.04,148
30.12,128
30.2,157
30.28,156
30.36,150
30.44,159
30.52,179
30.6,221
30.68,248
30.76,350
30.84,718
30.92,1835
31,5525
31.08,7843
31.16,4117
31.24,1760
31.32,1288
31.4,736
31.48,407
31.56,382
31.64,274
31.72,235
31.8,210
31.88,201
31.96,194
32.04,169
32.12,171
32.2,133
32.28,141
32.36,171
32.44,162
32.52,178
32.6,160
32.68,183
32.76,181
32.84,218
32.92,258
33,304
33.08,350
33.16,465
33.24,685
33.32,1187
33.4,2105
33.48,4867
33.56,7383
33.64,6095
33.72,2590
33.8,853
33.88,501
33.96,453
34.04,416
34.12,335
34.2,283
34.28,222
34.36,200
34.44,186
34.52,180
34.6,165
34.68,155
34.76,116
34.84,120
34.92,137
35,124
35.08,106
35.16,106
35.24,87
35.32,97
35.4,83
35.48,83
35.56,92
35.64,85
35.72,92
35.8,83
35.88,76
35.96,92
36.04,76
36.12,76
36.2,74
36.28,106
36.36,94
36.44,90
36.52,97
36.6,103
36.68,114
36.76,122
36.84,109
36.92,118
37,85
37.08,97
37.16,129
37.24,118
37.32,132
37.4,106
37.48,129
37.56,140
37.64,156
37.72,179
37.8,175
37.88,246
37.96,469
38.04,1003
38.12,1937
38.2,2203
38.28,1290
38.36,469
38.44,251
38.52,239
38.6,202
38.68,161
38.76,149
38.84,142
38.92,146
39,133
39.08,120
39.16,140
39.24,137
39.32,134
39.4,106
39.48,143
39.56,134
39.64,130
39.72,158
39.8,169
39.88,185
39.96,147
40.04,207
40.12,262
40.2,393
40.28,1219
40.36,2047
40.44,1619
40.52,869
40.6,297
40.68,202
40.76,168
40.84,124
40.92,90
41,110
41.08,97
41.16,106
41.24,69
41.32,87
41.4,85
41.48,85
41.56,87
41.64,74
41.72,83
41.8,101
41.88,101
41.96,114
42.04,104
42.12,124
42.2,124
42.28,122
42.36,103
42.44,122
42.52,110
42.6,113
42.68,128
42.76,98
42.84,115
42.92,102
43,116
43.08,99
43.16,106
43.24,113
43.32,120
43.4,109
43.48,117
43.56,104
43.64,114
43.72,125
43.8,136
43.88,157
43.96,179
44.04,212
44.12,244
44.2,345
44.28,582
44.36,869
44.44,952
44.52,1159
44.6,938
44.68,543
44.76,313
44.84,166
44.92,133
45,94
45.08,106
45.16,129
45.24,110
45.32,85
45.4,120
45.48,94
45.56,71
45.64,69
45.72,76
45.8,92
45.88,92
45.96,74
46.04,110
46.12,223
46.2,384
46.28,483
46.36,313
46.44,230
46.52,175
46.6,159
46.68,145
46.76,135
46.84,131
46.92,128
47,118
47.08,131
47.16,130
47.24,126
47.32,133
47.4,118
47.48,112
47.56,122
47.64,117
47.72,101
47.8,102
47.88,117
47.96,124
48.04,124
48.12,125
48.2,119
48.28,122
48.36,126
48.44,116
48.52,117
48.6,126
48.68,123
48.76,122
48.84,122
48.92,114
49,128
49.08,128
49.16,126
49.24,134
49.32,120
49.4,115
49.48,127
49.56,125
49.64,114
49.72,125
49.8,138
49.88,230
49.96,301
50.04,221
50.12,193
50.2,97
50.28,97
50.36,81
50.44,97
50.52,85
50.6,92
50.68,76
50.76,81
50.84,74
50.92,76
51,74
51.08,92
51.16,78
51.24,101
51.32,97
51.4,133
51.48,184
51.56,414
51.64,828
51.72,828
51.8,662
51.88,373
51.96,193
52.04,136
52.12,129
52.2,124
52.28,121
52.36,101
52.44,124
52.52,124
52.6,137
52.68,133
52.76,129
52.84,127
52.92,127
53,118
53.08,132
53.16,131
53.24,128
53.32,136
53.4,121
53.48,115
53.56,126
53.64,122
53.72,110
53.8,122
53.88,123
53.96,133
54.04,112
54.12,118
54.2,124
54.28,134
54.36,131
54.44,129
54.52,97
54.6,109
54.68,132
54.76,130
54.84,131
54.92,111
55,136
55.08,124
55.16,124
55.24,115
55.32,120
55.4,110
55.48,104
55.56,102
55.64,120
55.72,120
55.8,131
55.88,140
55.96,153
56.04,156
56.12,161
56.2,140
56.28,168
56.36,219
56.44,205
56.52,311
56.6,527
56.68,828
56.76,1350
56.84,1380
56.92,998
57,736
57.08,347
57.16,267
57.24,210
57.32,173
57.4,176
57.48,166
57.56,156
57.64,132
57.72,147
57.8,110
57.88,106
57.96,120
58.04,97
58.12,92
58.2,90
58.28,87
58.36,78
58.44,104
58.52,94
58.6,83
58.68,120
58.76,106
58.84,92
58.92,69
59,83
59.08,85
59.16,110
59.24,106
59.32,106
59.4,129
59.48,145
59.56,173
59.64,216
59.72,380
59.8,580
59.88,731
59.96,998
60.04,819
60.12,600
60.2,421
60.28,239
60.36,152
60.44,186
60.52,143
60.6,154
60.68,124
60.76,129
60.84,152
60.92,147
61,150
61.08,186
61.16,189
61.24,338
61.32,731
61.4,1339
61.48,1224
61.56,948
61.64,713
61.72,345
61.8,251
61.88,193
61.96,173
62.04,138
62.12,137
62.2,135
62.28,142
62.36,146
62.44,128
62.52,134
62.6,98
62.68,107
62.76,135
62.84,122
62.92,134
63,107
63.08,130
63.16,103
63.24,118
63.32,106
63.4,130
63.48,127
63.56,135
63.64,137
63.72,128
63.8,138
63.88,124
63.96,133
64.04,120
64.12,124
64.2,152
64.28,253
64.36,478
64.44,814
64.52,872
64.6,653
64.68,547
64.76,363
64.84,175
64.92,138
65,138
65.08,131
65.16,147
65.24,120
65.32,124
65.4,117
65.48,138
65.56,138
65.64,118
65.72,145
65.8,230
65.88,278
65.96,352
66.04,460
66.12,405
66.2,304
66.28,267
66.36,161
66.44,129
66.52,112
66.6,110
66.68,97
66.76,127
66.84,111
66.92,120
67,124
67.08,112
67.16,96
67.24,102
67.32,106
67.4,117
67.48,115
67.56,101
67.64,97
67.72,99
67.8,94
67.88,92
67.96,87
68.04,106
68.12,110
68.2,108
68.28,117
68.36,97
68.44,121
68.52,113
68.6,106
68.68,133
68.76,161
68.84,184
68.92,175
69,175
69.08,156
69.16,129
69.24,143
69.32,133
69.4,113
69.48,129
69.56,120
69.64,117
69.72,120
69.8,120
69.88,113
69.96,152
70.04,152
70.12,184
70.2,288
70.28,426
70.36,400
70.44,361
70.52,313
70.6,223
70.68,161
70.76,143
70.84,115
70.92,115
71,106
71.08,101
71.16,97
71.24,104
71.32,106
71.4,97
71.48,118
71.56,114
71.64,111
71.72,109
71.8,109
71.88,99
71.96,101
72.04,110
72.12,106
72.2,99
72.28,83
72.36,97
72.44,85
72.52,104
72.6,97
72.68,99
72.76,92
72.84,90
72.92,106
73,101
73.08,124
73.16,131
73.24,202
73.32,301
73.4,357
73.48,414
73.56,331
73.64,306
73.72,235
73.8,152
73.88,147
73.96,170
74.04,129
74.12,150
74.2,147
74.28,120
74.36,179
74.44,327
74.52,469
74.6,520
74.68,522
74.76,529
74.84,511
74.92,414
75,292
75.08,281
75.16,207
75.24,191
75.32,147
75.4,124
75.48,117
75.56,108
75.64,85
75.72,106
75.8,97
75.88,110
75.96,106
76.04,74
76.12,90
76.2,87
76.28,69
76.36,62
76.44,71
76.52,69
76.6,81
76.68,104
76.76,97
76.84,107
76.92,108
77,103
77.08,98
77.16,122
77.24,138
77.32,170
77.4,306
77.48,391
77.56,290
77.64,271
77.72,271
77.8,163
77.88,156
77.96,156
78.04,120
78.12,87
78.2,81
78.28,87
78.36,92
78.44,117
78.52,104
78.6,152
78.68,161
78.76,221
78.84,152
78.92,239
79,260
79.08,221
79.16,179
79.24,175
79.32,133
79.4,124
79.48,101
79.56,92
79.64,71
79.72,76
79.8,92
79.88,69
79.96,64
80.04,83
80.12,74
80.2,69
80.28,71
80.36,60
80.44,76
80.52,78
80.6,71
80.68,58
80.76,55
80.84,92
80.92,81
81,60
81.08,64
81.16,69
81.24,71
81.32,83
81.4,81
81.48,87
81.56,76
81.64,92
81.72,62
81.8,78
81.88,69
81.96,69
82.04,78
82.12,78
82.2,60
82.28,64
82.36,87
82.44,67
82.52,78
82.6,85
82.68,87
82.76,140
82.84,156
82.92,230
83,253
83.08,175
83.16,175
83.24,175
83.32,120
83.4,115
83.48,83
83.56,83
83.64,78
83.72,83
83.8,81
83.88,76
83.96,87
84.04,110
84.12,92
84.2,83
84.28,90
84.36,92
84.44,87
84.52,90
84.6,115
84.68,97
84.76,81
84.84,83
84.92,85
85,92
85.08,101
85.16,85
85.24,97
85.32,110
85.4,133
85.48,232
85.56,322
85.64,301
85.72,299
85.8,276
85.88,255
85.96,189
86.04,133
86.12,106
86.2,106
86.28,101
86.36,94
86.44,94
86.52,97
86.6,110
86.68,129
86.76,122
86.84,136
86.92,237
87,366
87.08,285
87.16,255
87.24,304
87.32,322
87.4,193
87.48,147
87.56,138
87.64,97
87.72,92
87.8,83
87.88,90
87.96,85
88.04,81
88.12,83
88.2,64
88.28,78
88.36,69
88.44,74
88.52,74
88.6,55
88.68,71
88.76,97
88.84,90
88.92,74
89,71
89.08,92
89.16,81
89.24,83
89.32,87
89.4,74
89.48,110
89.56,133
89.64,170
89.72,152
89.8,133
89.88,120
89.96,113
90.04,78
90.12,94
90.2,58
90.28,92
90.36,78
90.44,92
90.52,94
90.6,101
90.68,101
90.76,97
90.84,143
90.92,156
91,214
91.08,244
91.16,230
91.24,207
91.32,179
91.4,175
91.48,159
91.56,129
91.64,94
91.72,115
91.8,97
91.88,92
91.96,92
92.04,94
92.12,97
92.2,90
92.28,83
92.36,90
92.44,74
92.52,74
92.6,87
92.68,101
92.76,78
92.84,87
92.92,78
93,92
93.08,90
93.16,69
93.24,101
93.32,106
93.4,101
93.48,97
93.56,120
93.64,104
93.72,110
93.8,120
93.88,74
93.96,85
94.04,81
94.12,71
94.2,110
94.28,97
94.36,97
94.44,101
94.52,101
94.6,110
94.68,129
94.76,166
94.84,170
94.92,235
95,345
95.08,359
95.16,340
95.24,352
95.32,568
95.4,465
95.48,274
95.56,262
95.64,285
95.72,235
95.8,154
95.88,131
95.96,110
96.04,108
96.12,94
96.2,115
96.28,115
96.36,108
96.44,94
96.52,101
96.6,101
96.68,101
96.76,97
96.84,87
96.92,92
97,108
97.08,87
97.16,104
97.24,92
97.32,83
97.4,106
97.48,106
97.56,108
97.64,156
97.72,166
97.8,166
97.88,168
97.96,248
98.04,281
98.12,248
98.2,212
98.28,205
98.36,216
98.44,207
98.52,170
98.6,143
98.68,129
98.76,127
98.84,108
98.92,120
99,124
99.08,127
99.16,154
99.24,124
99.32,133
99.4,127
99.48,145
99.56,120
99.64,101
99.72,99
99.8,106
99.88,90
99.96,97
100.04,97
100.12,99
100.2,87
100.28,101
100.36,97
100.44,115
100.52,92
100.6,78
100.68,92
100.76,101
100.84,106
100.92,97
101,110
101.08,120
101.16,92
101.24,92
101.32,87
101.4,101
101.48,87
101.56,136
101.64,136
101.72,177
101.8,235
101.88,345
101.96,423
102.04,313
102.12,230
102.2,230
102.28,278
102.36,255
102.44,166
102.52,129
102.6,133
102.68,120
102.76,124
102.84,110
102.92,138
103,133
103.08,133
103.16,182
103.24,253
103.32,258
103.4,207
103.48,193
103.56,242
103.64,235
103.72,207
103.8,133
103.88,161
103.96,161
104.04,138
104.12,129
104.2,122
104.28,101
104.36,92
104.44,104
104.52,106
104.6,87
104.68,90
104.76,85
104.84,97
104.92,106
105,90
105.08,115
105.16,78
105.24,97
105.32,92
105.4,97
105.48,83
105.56,97
105.64,87
105.72,67
105.8,92
105.88,83
105.96,99
106.04,76
106.12,97
106.2,90
106.28,110
106.36,101
106.44,87
106.52,117
106.6,87
106.68,124
106.76,106
106.84,120
106.92,120
107,110
107.08,110
107.16,138
107.24,129
107.32,166
107.4,193
107.48,246
107.56,267
107.64,281
107.72,313
107.8,294
107.88,313
107.96,320
108.04,262
108.12,221
108.2,212
108.28,189
108.36,198
108.44,143
108.52,129
108.6,133
108.68,122
108.76,115
108.84,104
108.92,124
109,92
109.08,115
109.16,120
109.24,106
109.32,83
109.4,110
109.48,97
109.56,106
109.64,92
109.72,101
109.8,101
109.88,101
109.96,106
110.04,101
110.12,122
110.2,115
110.28,156
110.36,99
110.44,138
110.52,143
110.6,106
110.68,147
110.76,170
110.84,184
110.92,170
111,156
111.08,124
111.16,152
111.24,143
111.32,138
111.4,133
111.48,110
111.56,87
111.64,87
111.72,113
111.8,97
111.88,106
111.96,122
112.04,106
112.12,97
112.2,115
112.28,92
112.36,106
112.44,120
112.52,97
112.6,113
112.68,101
112.76,101
112.84,97
112.92,85
113,87
113.08,101
113.16,99
113.24,129
113.32,108
113.4,115
113.48,124
113.56,120
113.64,106
113.72,110
113.8,115
113.88,127
113.96,110
114.04,110
114.12,115
114.2,90
114.28,115
114.36,115
114.44,120
114.52,154
114.6,152
114.68,193
114.76,235
114.84,248
114.92,202
115,156
115.08,152
115.16,191
115.24,205
115.32,219
115.4,168
115.48,131
115.56,117
115.64,110
115.72,124
115.8,124
115.88,120
115.96,106
116.04,120
116.12,120
116.2,124
116.28,117
116.36,101
116.44,115
116.52,115
116.6,101
116.68,101
116.76,156
116.84,115
116.92,110
117,115
117.08,92
117.16,110
117.24,113
117.32,101
117.4,110
117.48,113
117.56,92
117.64,92
117.72,101
117.8,97
117.88,106
117.96,101
118.04,110
118.12,101
118.2,74
118.28,87
118.36,78
118.44,97
118.52,92
118.6,92
118.68,92
118.76,87
118.84,106
118.92,92
119,92
119.08,101
119.16,143
119.24,156
119.32,175
119.4,120
119.48,108
119.56,120
119.64,129
119.72,133
119.8,140
119.88,120
119.96,97
120.02,74