File: data/xrd_icdd_PDF/00-069-0133 (PD3).csv
9.9813,47
10.0233,57
10.06529,74
10.10729,44
10.14929,46
10.19129,57
10.23328,63
10.27528,26
10.31728,77
10.35927,51
10.40127,58
10.44327,73
10.48526,67
10.52726,69
10.56926,46
10.61126,74
10.65325,52
10.69525,62
10.73725,55
10.77924,73
10.82124,62
10.86324,65
10.90524,96
10.94723,75
10.98923,78
11.03123,69
11.07322,82
11.11522,78
11.15722,71
11.19921,67
11.24121,61
11.28321,82
11.32521,46
11.3672,78
11.4092,73
11.4512,93
11.49319,67
11.53519,90
11.57719,89
11.61919,66
11.66118,65
11.70318,87
11.74518,96
11.78717,96
11.82917,71
11.87117,82
11.91316,71
11.95516,98
11.99716,85
12.03916,113
12.08115,83
12.12315,83
12.16515,120
12.20714,78
12.24914,96
12.29114,102
12.33314,87
12.37513,104
12.41713,101
12.45913,94
12.50112,77
12.54312,96
12.58512,110
12.62711,105
12.66911,100
12.71111,109
12.75311,116
12.7951,93
12.8371,106
12.8791,93
12.92109,106
12.96309,116
13.00509,94
13.04709,101
13.08908,122
13.13108,113
13.17308,96
13.21507,98
13.25707,124
13.29907,161
13.34106,130
13.38306,93
13.42506,125
13.46706,130
13.50905,112
13.55105,120
13.59305,108
13.63504,114
13.67704,129
13.71904,135
13.76104,132
13.80303,97
13.84503,137
13.88703,126
13.92902,117
13.97102,116
14.01302,157
14.05501,106
14.09701,124
14.13901,130
14.18101,129
14.223,157
14.265,172
14.307,178
14.34899,217
14.39099,257
14.43299,264
14.47499,363
14.51698,453
14.55898,652
14.60098,919
14.64297,1327
14.68497,2193
14.72697,3911
14.76896,3619
14.81096,1274
14.85296,444
14.89496,291
14.93695,215
14.97895,167
15.02095,188
15.06294,194
15.10494,191
15.14694,214
15.18894,260
15.23093,313
15.27293,412
15.31493,287
15.35692,199
15.39892,156
15.44092,122
15.48291,144
15.52491,161
15.56691,165
15.60891,156
15.6509,139
15.6929,159
15.7349,163
15.77689,170
15.81889,172
15.86089,168
15.90289,167
15.94488,174
15.98688,149
16.02888,161
16.07087,165
16.11287,178
16.15487,174
16.19686,143
16.23886,156
16.28086,159
16.32286,152
16.36485,171
16.40685,182
16.44885,161
16.49084,174
16.53284,139
16.57484,165
16.61684,188
16.65883,175
16.70083,171
16.74283,156
16.78482,170
16.82682,153
16.86882,175
16.91081,161
16.95281,198
16.99481,176
17.03681,171
17.0788,179
17.1208,203
17.1628,165
17.20479,192
17.24679,176
17.28879,178
17.33079,183
17.37278,187
17.41478,170
17.45678,179
17.49877,179
17.54077,198
17.58277,157
17.62476,178
17.66676,172
17.70876,155
17.75076,187
17.79275,195
17.83475,198
17.87675,191
17.91874,163
17.96074,168
18.00274,165
18.04474,178
18.08673,182
18.12873,196
18.17073,165
18.21272,157
18.25472,183
18.29672,191
18.33871,151
18.38071,178
18.42271,161
18.46471,168
18.5067,170
18.5487,170
18.5907,167
18.63269,168
18.67469,170
18.71669,187
18.75869,192
18.80068,195
18.84268,178
18.88468,210
18.92667,187
18.96867,180
19.01067,206
19.05266,160
19.09466,190
19.13666,192
19.17866,200
19.22065,214
19.26265,195
19.30465,184
19.34664,159
19.38864,187
19.43064,176
19.47264,190
19.51463,178
19.55663,190
19.59863,159
19.64062,172
19.68262,179
19.72462,198
19.76661,195
19.80861,178
19.85061,176
19.89261,170
19.9346,203
19.9766,174
20.0186,152
20.06059,213
20.10259,183
20.14459,195
20.18659,198
20.22858,191
20.27058,190
20.31258,183
20.35457,203
20.39657,179
20.43857,178
20.48056,223
20.52256,198
20.56456,190
20.60656,187
20.64855,180
20.69055,190
20.73255,190
20.77454,231
20.81654,256
20.85854,311
20.90054,359
20.94253,515
20.98453,895
21.02653,1395
21.06852,877
21.11052,460
21.15252,283
21.19452,265
21.23651,266
21.27851,324
21.32051,256
21.3625,234
21.4045,198
21.4465,192
21.48849,202
21.53049,190
21.57249,206
21.61449,207
21.65648,182
21.69848,207
21.74048,200
21.78247,196
21.82447,200
21.86647,192
21.90847,186
21.95046,194
21.99246,230
22.03446,217
22.07645,237
22.11845,277
22.16045,369
22.20244,465
22.24444,731
22.28644,873
22.32844,581
22.37043,332
22.41243,258
22.45443,213
22.49642,223
22.53842,194
22.58042,188
22.62242,250
22.66441,209
22.70641,188
22.74841,202
22.7904,204
22.8324,204
22.8744,196
22.91639,192
22.95839,174
23.00039,199
23.04239,215
23.08438,218
23.12638,199
23.16838,203
23.21037,192
23.25237,213
23.29437,199
23.33637,218
23.37836,213
23.42036,202
23.46236,233
23.50435,195
23.54635,202
23.58835,244
23.63034,297
23.67234,370
23.71434,499
23.75634,821
23.79833,1469
23.84033,2073
23.88233,1200
23.92432,531
23.96632,313
24.00832,283
24.05032,226
24.09231,254
24.13431,235
24.17631,261
24.2183,225
24.2603,210
24.3023,196
24.34429,218
24.38629,226
24.42829,223
24.47029,280
24.51228,311
24.55428,396
24.59628,552
24.63827,873
24.68027,1188
24.72227,822
24.76427,517
24.80626,285
24.84826,239
24.89026,223
24.93225,239
24.97425,229
25.01625,196
25.05824,221
25.10024,239
25.14224,202
25.18424,225
25.22623,226
25.26823,195
25.31023,241
25.35222,297
25.39422,281
25.43622,245
25.47822,176
25.52021,283
25.56221,253
25.60421,343
25.6462,455
25.6882,652
25.7302,1095
25.77219,1873
25.81419,1345
25.85619,913
25.89819,393
25.94018,318
25.98218,323
26.02418,332
26.06617,256
26.10817,238
26.15017,235
26.19217,199
26.23416,227
26.27616,245
26.31816,213
26.36015,210
26.40215,215
26.44415,230
26.48614,234
26.52814,284
26.57014,278
26.61214,343
26.65413,386
26.69613,600
26.73813,926
26.78012,1678
26.82212,2349
26.86412,1601
26.90612,1074
26.94811,460
26.99011,336
27.03211,270
27.0741,249
27.1161,242
27.1581,219
27.20009,266
27.24209,260
27.28409,245
27.32609,239
27.36808,233
27.41008,233
27.45208,233
27.49407,242
27.53607,239
27.57807,233
27.62007,250
27.66206,260
27.70406,274
27.74606,312
27.78805,324
27.83005,387
27.87205,467
27.91404,585
27.95604,962
27.99804,1487
28.04004,2543
28.08203,4896
28.12403,9490
28.16603,6704
28.20802,5291
28.25002,1935
28.29202,880
28.33402,592
28.37601,478
28.41801,447
28.46001,382
28.502,393
28.544,396
28.586,465
28.62799,587
28.66999,846
28.71199,1251
28.75399,2046
28.79598,3809
28.83798,7272
28.87998,7138
28.92197,4966
28.96397,2653
29.00597,1021
29.04797,657
29.08996,499
29.13196,422
29.17396,350
29.21595,332
29.25795,326
29.29995,289
29.34194,296
29.38394,313
29.42594,292
29.46794,355
29.50993,375
29.55193,421
29.59393,562
29.63592,860
29.67792,1493
29.71992,2774
29.76192,2284
29.80391,1710
29.84591,962
29.88791,474
29.9299,359
29.9719,297
30.0139,264
30.05589,300
30.09789,223
30.13989,250
30.18189,266
30.22388,250
30.26588,272
30.30788,244
30.34987,233
30.39187,256
30.43387,265
30.47587,256
30.51786,245
30.55986,301
30.60186,295
30.64385,346
30.68585,495
30.72785,739
30.76984,1336
30.81184,2510
30.85384,1635
30.89584,1475
30.93783,659
30.97983,357
31.02183,292
31.06382,283
31.10582,249
31.14782,235
31.18982,221
31.23181,222
31.27381,219
31.31581,210
31.3578,200
31.3998,186
31.4418,184
31.48379,198
31.52579,213
31.56779,209
31.60979,164
31.65178,199
31.69378,183
31.73578,203
31.77777,191
31.81977,209
31.86177,203
31.90377,239
31.94576,190
31.98776,225
32.02976,231
32.07175,210
32.11375,213
32.15575,172
32.19774,200
32.23974,217
32.28174,184
32.32374,218
32.36573,191
32.40773,226
32.44973,204
32.49172,180
32.53372,203
32.57572,199
32.61772,194
32.65971,206
32.70171,210
32.74371,179
32.7857,195
32.8277,199
32.8697,182
32.91169,200
32.95369,202
32.99569,209
33.03769,237
33.07968,249
33.12168,238
33.16368,221
33.20567,266
33.24767,258
33.28967,241
33.33167,256
33.37366,322
33.41566,382
33.45766,502
33.49965,764
33.54165,1357
33.58365,2278
33.62564,1797
33.66764,1920
33.70964,2099
33.75164,2418
33.79363,1316
33.83563,1313
33.87763,554
33.91962,351
33.96162,262
34.00362,239
34.04562,281
34.08761,190
34.12961,231
34.17161,227
34.2136,268
34.2556,323
34.2976,531
34.33959,581
34.38159,421
34.42359,400
34.46559,256
34.50758,209
34.54958,204
34.59158,198
34.63357,192
34.67557,196
34.71757,186
34.75957,147
34.80156,191
34.84356,192
34.88556,211
34.92755,209
34.96955,187
35.01155,206
35.05354,218
35.09554,235
35.13754,239
35.17954,246
35.22153,285
35.26353,382
35.30553,603
35.34752,1130
35.38952,1134
35.43152,823
35.47352,705
35.51551,428
35.55751,273
35.59951,239
35.6415,217
35.6835,191
35.7255,202
35.76749,209
35.80949,182
35.85149,168
35.89349,196
35.93548,221
35.97748,192
36.01948,191
36.06147,195
36.10347,192
36.14547,171
36.18747,163
36.22946,176
36.27146,204
36.31346,200
36.35545,211
36.39745,209
36.43945,198
36.48144,233
36.52344,287
36.56544,344
36.60744,476
36.64943,826
36.69143,1415
36.73343,1113
36.77542,939
36.81742,756
36.85942,410
36.90142,355
36.94341,436
36.98541,607
37.02741,587
37.0694,431
37.1114,431
37.1534,308
37.19539,254
37.23739,295
37.27939,328
37.32139,390
37.36338,616
37.40538,994
37.44738,1906
37.48937,1779
37.53137,1205
37.57337,1172
37.61537,542
37.65736,354
37.69936,249
37.74136,249
37.78335,179
37.82535,227
37.86735,217
37.90934,179
37.95134,215
37.99334,194
38.03534,192
38.07733,170
38.11933,191
38.16133,192
38.20332,204
38.24532,187
38.28732,250
38.32932,249
38.37131,355
38.41331,557
38.45531,821
38.4973,798
38.5393,686
38.5813,609
38.62329,417
38.66529,309
38.70729,239
38.74929,239
38.79128,261
38.83328,324
38.87528,422
38.91727,647
38.95927,1232
39.00127,2084
39.04327,1485
39.08526,1199
39.12726,1090
39.16926,519
39.21125,327
39.25325,295
39.29525,233
39.33724,219
39.37924,202
39.42124,182
39.46324,159
39.50523,167
39.54723,170
39.58923,188
39.63122,151
39.67322,183
39.71522,179
39.75722,172
39.79921,168
39.84121,153
39.88321,183
39.9252,188
39.9672,196
40.0092,213
40.05119,269
40.09319,227
40.13519,210
40.17719,199
40.21918,165
40.26118,135
40.30318,164
40.34517,160
40.38717,163
40.42917,143
40.47117,168
40.51316,152
40.55516,143
40.59716,145
40.63915,153
40.68115,156
40.72315,147
40.76514,160
40.80714,151
40.84914,157
40.89114,172
40.93313,155
40.97513,129
41.01713,164
41.05912,136
41.10112,140
41.14312,164
41.18512,137
41.22711,152
41.26911,151
41.31111,171
41.3531,110
41.3951,152
41.4371,159
41.4791,137
41.52109,149
41.56309,148
41.60509,135
41.64708,144
41.68908,137
41.73108,137
41.77307,161
41.81507,137
41.85707,157
41.89907,145
41.94106,157
41.98306,147
42.02506,163
42.06705,164
42.10905,157
42.15105,180
42.19305,168
42.23504,176
42.27704,145
42.31904,152
42.36103,140
42.40303,133
42.44503,125
42.48702,143
42.52902,137
42.57102,135
42.61302,124
42.65501,149
42.69701,145
42.73901,153
42.781,155
42.823,156
42.865,135
42.907,155
42.94899,120
42.99099,164
43.03299,155
43.07498,114
43.11698,168
43.15898,144
43.20097,140
43.24297,144
43.28497,143
43.32697,151
43.36896,159
43.41096,153
43.45296,128
43.49495,159
43.53695,133
43.57895,129
43.62095,125
43.66294,151
43.70494,132
43.74694,151
43.78893,136
43.83093,133
43.87293,175
43.91492,156
43.95692,113
43.99892,167
44.04092,167
44.08291,152
44.12491,149
44.16691,190
44.2089,250
44.2509,328
44.2929,526
44.3349,990
44.37689,1041
44.41889,554
44.46089,679
44.50288,503
44.54488,245
44.58688,179
44.62887,179
44.67087,149
44.71287,130
44.75487,129
44.79686,133
44.83886,132
44.88086,140
44.92285,145
44.96485,135
45.00685,122
45.04885,157
45.09084,175
45.13284,178
45.17484,211
45.21683,277
45.25883,463
45.30083,386
45.34282,297
45.38482,373
45.42682,386
45.46882,369
45.51081,358
45.55281,440
45.59481,513
45.6368,340
45.6788,322
45.7208,293
45.7628,221
45.80479,198
45.84679,163
45.88879,172
45.93078,163
45.97278,175
46.01478,156
46.05677,156
46.09877,145
46.14077,130
46.18277,143
46.22476,140
46.26676,129
46.30876,183
46.35075,157
46.39275,140
46.43475,174
46.47675,167
46.51874,202
46.56074,213
46.60274,222
46.64473,266
46.68673,324
46.72873,541
46.77072,807
46.81272,766
46.85472,846
46.89672,1131
46.93871,1924
46.98071,3283
47.02271,2356
47.0647,1542
47.1067,1823
47.1487,1122
47.1907,500
47.23269,346
47.27469,262
47.31669,227
47.35868,188
47.40068,175
47.44268,180
47.48467,151
47.52667,161
47.56867,149
47.61067,180
47.65266,144
47.69466,153
47.73666,141
47.77865,139
47.82065,143
47.86265,155
47.90465,140
47.94664,128
47.98864,137
48.03064,151
48.07263,106
48.11463,116
48.15663,180
48.19862,155
48.24062,152
48.28262,135
48.32462,125
48.36661,165
48.40861,124
48.45061,136
48.4926,130
48.5346,148
48.5766,156
48.6186,137
48.66059,174
48.70259,242
48.74459,362
48.78658,370
48.82858,273
48.87058,278
48.91257,323
48.95457,222
48.99657,198
49.03857,210
49.08056,215
49.12256,273
49.16456,352
49.20655,491
49.24855,778
49.29055,1351
49.33255,1380
49.37454,1017
49.41654,1076
49.45854,1271
49.50053,1425
49.54253,888
49.58453,607
49.62652,685
49.66852,480
49.71052,281
49.75252,221
49.79451,188
49.83651,159
49.87851,161
49.9205,161
49.9625,152
50.0045,153
50.0465,136
50.08849,132
50.13049,124
50.17249,144
50.21448,145
50.25648,130
50.29848,188
50.34047,187
50.38247,248
50.42447,266
50.46647,258
50.50846,277
50.55046,428
50.59246,529
50.63445,445
50.67645,468
50.71845,433
50.76045,326
50.80244,318
50.84444,225
50.88644,219
50.92843,204
50.97043,245
51.01243,351
51.05442,254
51.09642,266
51.13842,200
51.18042,231
51.22241,194
51.26441,168
51.30641,147
51.3484,155
51.3904,171
51.4324,153
51.4744,172
51.51639,147
51.55839,192
51.60039,203
51.64238,254
51.68438,352
51.72638,589
51.76837,1055
51.81037,1156
51.85237,677
51.89437,677
51.93636,748
51.97836,461
52.02036,355
52.06235,324
52.10435,359
52.14635,499
52.18835,874
52.23034,1262
52.27234,893
52.31434,607
52.35633,767
52.39833,627
52.44033,370
52.48232,241
52.52432,188
52.56632,180
52.60832,165
52.65031,151
52.69231,148
52.73431,168
52.7763,180
52.8183,156
52.8603,165
52.9023,245
52.94429,367
52.98629,510
53.02829,381
53.07028,299
53.11228,315
53.15428,277
53.19627,191
53.23827,149
53.28027,124
53.32227,129
53.36426,100
53.40626,113
53.44826,126
53.49025,93
53.53225,118
53.57425,120
53.61625,116
53.65824,114
53.70024,118
53.74224,104
53.78423,114
53.82623,81
53.86823,110
53.91022,149
53.95222,109
53.99422,121
54.03622,165
54.07821,136
54.12021,156
54.16221,147
54.2042,196
54.2462,285
54.2882,523
54.3302,585
54.37219,316
54.41419,334
54.45619,344
54.49818,262
54.54018,188
54.58218,183
54.62417,145
54.66617,102
54.70817,121
54.75017,114
54.79216,145
54.83416,118
54.87616,112
54.91815,124
54.96015,109
55.00215,116
55.04415,139
55.08614,133
55.12814,180
55.17014,170
55.21213,239
55.25413,347
55.29613,273
55.33812,242
55.38012,229
55.42212,227
55.46412,192
55.50611,153
55.54811,160
55.59011,113
55.6321,129
55.6741,155
55.7161,170
55.7581,249
55.80009,184
55.84209,176
55.88409,164
55.92608,190
55.96808,133
56.01008,128
56.05207,148
56.09407,160
56.13607,155
56.17807,151
56.22006,198
56.26206,238
56.30406,327
56.34605,457
56.38805,669
56.43005,811
56.47205,825
56.51404,1142
56.55604,1994
56.59804,2660
56.64003,1649
56.68203,1130
56.72403,1347
56.76602,1215
56.80802,601
56.85002,371
56.89202,249
56.93401,196
56.97601,191
57.01801,159
57.06,141
57.102,139
57.144,110
57.186,121
57.22799,130
57.26999,136
57.31199,109
57.35398,126
57.39598,135
57.43798,130
57.47997,104
57.52197,137
57.56397,145
57.60597,180
57.64796,203
57.68996,174
57.73196,139
57.77395,187
57.81595,180
57.85795,132
57.89995,145
57.94194,121
57.98394,132
58.02594,122
58.06793,130
58.10993,118
58.15193,98
58.19392,74
58.23592,110
58.27792,83
58.31992,117
58.36191,116
58.40391,62
58.44591,98
58.4879,83
58.5299,114
58.5719,106
58.6139,106
58.65589,136
58.69789,157
58.73989,196
58.78188,148
58.82388,148
58.86588,167
58.90787,137
58.94987,108
58.99187,93
59.03387,63
59.07586,78
59.11786,97
59.15986,50
59.20185,78
59.24385,101
59.28585,77
59.32785,110
59.36984,101
59.41184,98
59.45384,102
59.49583,109
59.53783,110
59.57983,101
59.62182,86
59.66382,78
59.70582,78
59.74782,79
59.78981,98
59.83181,65
59.87381,98
59.9158,102
59.9578,104
59.9998,87
60.0418,94
60.08379,90
60.12579,70
60.16779,78
60.20978,70
60.25178,85
60.29378,82
60.33577,67
60.37777,104
60.41977,83
60.46177,79
60.50376,70
60.54576,58
60.58776,66
60.62975,85
60.67175,108
60.71375,85
60.75575,74
60.79774,74
60.83974,79
60.88174,89
60.92373,93
60.96573,112
61.00773,105
61.04972,136
61.09172,113
61.13372,91
61.17572,130
61.21771,129
61.25971,130
61.30171,124
61.3437,105
61.3857,132
61.4277,174
61.4697,194
61.51169,374
61.55369,515
61.59569,421
61.63768,292
61.67968,479
61.72168,712
61.76367,713
61.80567,425
61.84767,339
61.88967,327
61.93166,354
61.97366,214
62.01566,153
62.05765,128
62.09965,104
62.14165,118
62.18365,124
62.22564,85
62.26764,90
62.30964,67
62.35163,105
62.39363,101
62.43563,52
62.47763,81
62.51962,78
62.56162,94
62.60362,73
62.64561,69
62.68761,86
62.72961,62
62.7716,67
62.8136,59
62.8556,61
62.8976,54
62.93959,58
62.98159,69
63.02359,69
63.06558,75
63.10758,59
63.14958,54
63.19158,71
63.23357,79
63.27557,86
63.31757,65
63.35956,46
63.40156,70
63.44356,61
63.48555,78
63.52755,86
63.56955,77
63.61155,82
63.65354,93
63.69554,47
63.73754,89
63.77953,70
63.82153,52
63.86353,83
63.90553,73
63.94752,71
63.98952,100
64.03152,128
64.07351,153
64.11551,148
64.15751,235
64.1995,370
64.2415,487
64.2835,697
64.3255,644
64.36749,449
64.40949,382
64.45149,406
64.49348,354
64.53548,253
64.57748,167
64.61948,110
64.66147,98
64.70347,109
64.74547,97
64.78746,74
64.82946,77
64.87146,86
64.91345,93
64.95545,86
64.99745,116
65.03945,137
65.08144,143
65.12344,204
65.16544,250
65.20743,440
65.24943,584
65.29143,433
65.33343,323
65.37542,455
65.41742,611
65.45942,487
65.50141,256
65.54341,182
65.58541,225
65.6274,225
65.6694,133
65.7114,124
65.7534,118
65.79539,77
65.83739,63
65.87939,62
65.92138,59
65.96338,112
66.00538,133
66.04738,105
66.08937,113
66.13137,89
66.17337,108
66.21536,122
66.25736,125
66.29936,136
66.34135,261
66.38335,296
66.42535,207
66.46735,196
66.50934,209
66.55134,202
66.59334,191
66.63533,125
66.67733,110
66.71933,110
66.76133,97
66.80332,79
66.84532,102
66.88732,100
66.92931,100
66.97131,118
67.01331,209
67.0553,257
67.0973,436
67.1393,580
67.1813,484
67.22329,405
67.26529,533
67.30729,634
67.34928,601
67.39128,589
67.43328,591
67.47528,639
67.51727,509
67.55927,412
67.60127,319
67.64326,319
67.68526,260
67.72726,196
67.76925,167
67.81125,125
67.85325,100
67.89525,74
67.93724,54
67.97924,117
68.02124,65
68.06323,52
68.10523,61
68.14723,58
68.18923,54
68.23122,31
68.27322,54
68.31522,83
68.35721,93
68.39921,118
68.44121,113
68.4832,91
68.5252,91
68.5672,82
68.6092,106
68.65119,51
68.69319,75
68.73519,54
68.77718,51
68.81918,31
68.86118,50
68.90318,43
68.94517,42
68.98717,75
69.02917,67
69.07116,47
69.11316,27
69.15516,67
69.19715,43
69.23915,51
69.28115,47
69.32315,101
69.36514,86
69.40714,172
69.44914,249
69.49113,182
69.53313,152
69.57513,145
69.61713,157
69.65912,178
69.70112,96
69.74312,94
69.78511,62
69.82711,59
69.86911,26
69.9111,42
69.9531,5
69.9771,38