File: data/xrd_icdd_PDF/00-063-0413 (PD3).csv
5,413
5.08,395
5.16,411
5.24,399
5.32,378
5.4,397
5.48,354
5.56,366
5.64,344
5.72,353
5.8,385
5.88,342
5.96,352
6.04,352
6.12,351
6.2,328
6.28,328
6.36,328
6.44,309
6.52,327
6.6,309
6.68,342
6.76,324
6.84,341
6.92,330
7,309
7.08,330
7.16,287
7.24,300
7.32,278
7.4,288
7.48,320
7.56,278
7.64,289
7.72,289
7.8,289
7.88,267
7.96,267
8.04,268
8.12,258
8.2,268
8.28,257
8.36,268
8.44,289
8.52,246
8.6,247
8.68,257
8.76,265
8.84,260
8.92,228
9,236
9.08,242
9.16,247
9.24,247
9.32,245
9.4,258
9.48,246
9.56,247
9.64,237
9.72,294
9.8,268
9.88,412
9.96,247
10.04,215
10.12,208
10.2,237
10.28,206
10.36,206
10.44,217
10.52,206
10.6,191
10.68,189
10.76,221
10.84,212
10.92,182
11,209
11.08,208
11.16,196
11.24,177
11.32,199
11.4,199
11.48,169
11.56,170
11.64,188
11.72,166
11.8,188
11.88,171
11.96,191
12.04,183
12.12,195
12.2,197
12.28,175
12.36,159
12.44,178
12.52,175
12.6,182
12.68,164
12.76,149
12.84,168
12.92,167
13,167
13.08,184
13.16,181
13.24,173
13.32,155
13.4,157
13.48,145
13.56,160
13.64,139
13.72,142
13.8,175
13.88,134
13.96,155
14.04,159
14.12,158
14.2,157
14.28,146
14.36,128
14.44,135
14.52,164
14.6,149
14.68,150
14.76,153
14.84,144
14.92,124
15,124
15.08,124
15.16,134
15.24,174
15.32,174
15.4,138
15.48,116
15.56,139
15.64,123
15.72,144
15.8,137
15.88,151
15.96,153
16.04,132
16.12,118
16.2,138
16.28,136
16.36,145
16.44,130
16.52,155
16.6,130
16.68,178
16.76,165
16.84,186
16.92,289
17,423
17.08,289
17.16,168
17.24,165
17.32,144
17.4,111
17.48,145
17.56,128
17.64,147
17.72,138
17.8,120
17.88,142
17.96,102
18.04,118
18.12,98
18.2,124
18.28,144
18.36,108
18.44,128
18.52,126
18.6,136
18.68,120
18.76,145
18.84,118
18.92,162
19,160
19.08,175
19.16,193
19.24,371
19.32,247
19.4,186
19.48,161
19.56,153
19.64,163
19.72,220
19.8,239
19.88,205
19.96,204
20.04,143
20.12,154
20.2,141
20.28,121
20.36,142
20.44,101
20.52,116
20.6,97
20.68,110
20.76,145
20.84,105
20.92,119
21,122
21.08,124
21.16,105
21.24,108
21.32,111
21.4,95
21.48,116
21.56,102
21.64,139
21.72,124
21.8,144
21.88,137
21.96,119
22.04,143
22.12,103
22.2,120
22.28,101
22.36,115
22.44,151
22.52,112
22.6,127
22.68,131
22.76,136
22.84,120
22.92,127
23,165
23.08,144
23.16,225
23.24,276
23.32,405
23.4,448
23.48,315
23.56,288
23.64,202
23.72,170
23.8,131
23.88,135
23.96,166
24.04,124
24.12,137
24.2,139
24.28,141
24.36,122
24.44,125
24.52,128
24.6,113
24.68,134
24.76,120
24.84,158
24.92,144
25,166
25.08,161
25.16,148
25.24,181
25.32,167
25.4,223
25.48,266
25.56,261
25.64,227
25.72,156
25.8,159
25.88,158
25.96,159
26.04,140
26.12,145
26.2,150
26.28,146
26.36,162
26.44,160
26.52,182
26.6,222
26.68,210
26.76,281
26.84,450
26.92,705
27,979
27.08,701
27.16,812
27.24,618
27.32,390
27.4,289
27.48,236
27.56,229
27.64,278
27.72,298
27.8,258
27.88,196
27.96,202
28.04,165
28.12,197
28.2,175
28.28,175
28.36,153
28.44,143
28.52,170
28.6,149
28.68,173
28.76,157
28.84,179
28.92,173
29,187
29.08,191
29.16,171
29.24,158
29.32,179
29.4,178
29.48,189
29.56,175
29.64,203
29.72,184
29.8,247
29.88,277
29.96,334
30.04,275
30.12,230
30.2,185
30.28,209
30.36,170
30.44,170
30.52,194
30.6,175
30.68,167
30.76,179
30.84,186
30.92,194
31,197
31.08,200
31.16,191
31.24,214
31.32,181
31.4,197
31.48,194
31.56,199
31.64,224
31.72,221
31.8,221
31.88,203
31.96,230
32.04,218
32.12,243
32.2,240
32.28,259
32.36,268
32.44,253
32.52,246
32.6,274
32.68,282
32.76,302
32.84,300
32.92,341
33,334
33.08,400
33.16,422
33.24,483
33.32,554
33.4,928
33.48,1474
33.56,3196
33.64,4598
33.72,6784
33.8,6506
33.88,4186
33.96,2309
34.04,1666
34.12,1702
34.2,2378
34.28,4233
34.36,8815
34.44,13341
34.52,11939
34.6,5856
34.68,2674
34.76,1358
34.84,891
34.92,716
35,661
35.08,661
35.16,789
35.24,1109
35.32,1544
35.4,1710
35.48,1660
35.56,1382
35.64,992
35.72,686
35.8,467
35.88,366
35.96,339
36.04,353
36.12,351
36.2,356
36.28,370
36.36,440
36.44,515
36.52,472
36.6,391
36.68,319
36.76,319
36.84,295
36.92,302
37,316
37.08,338
37.16,403
37.24,454
37.32,690
37.4,1312
37.48,2070
37.56,1924
37.64,1209
37.72,681
37.8,478
37.88,382
37.96,332
38.04,328
38.12,313
38.2,316
38.28,297
38.36,321
38.44,294
38.52,338
38.6,331
38.68,355
38.76,450
38.84,583
38.92,886
39,1186
39.08,1214
39.16,946
39.24,655
39.32,505
39.4,392
39.48,342
39.56,391
39.64,350
39.72,383
39.8,391
39.88,387
39.96,412
40.04,527
40.12,703
40.2,1266
40.28,2371
40.36,3423
40.44,2485
40.52,1402
40.6,598
40.68,577
40.76,485
40.84,454
40.92,938
41,1670
41.08,2309
41.16,2371
41.24,2433
41.32,3732
41.4,3298
41.48,2150
41.56,1223
41.64,750
41.72,590
41.8,502
41.88,431
41.96,433
42.04,414
42.12,392
42.2,366
42.28,384
42.36,384
42.44,357
42.52,366
42.6,379
42.68,442
42.76,473
42.84,494
42.92,546
43,670
43.08,980
43.16,1292
43.24,1563
43.32,1898
43.4,1852
43.48,1452
43.56,924
43.64,597
43.72,476
43.8,385
43.88,359
43.96,365
44.04,337
44.12,322
44.2,350
44.28,319
44.36,349
44.44,351
44.52,356
44.6,338
44.68,423
44.76,445
44.84,454
44.92,639
45,928
45.08,887
45.16,687
45.24,507
45.32,406
45.4,395
45.48,370
45.56,332
45.64,355
45.72,350
45.8,337
45.88,318
45.96,339
46.04,340
46.12,310
46.2,312
46.28,304
46.36,327
46.44,307
46.52,289
46.6,292
46.68,283
46.76,339
46.84,354
46.92,305
47,317
47.08,307
47.16,319
47.24,289
47.32,292
47.4,326
47.48,301
47.56,311
47.64,339
47.72,321
47.8,308
47.88,335
47.96,302
48.04,331
48.12,330
48.2,328
48.28,300
48.36,290
48.44,289
48.52,323
48.6,316
48.68,289
48.76,321
48.84,321
48.92,265
49,314
49.08,310
49.16,312
49.24,336
49.32,317
49.4,344
49.48,314
49.56,347
49.64,329
49.72,351
49.8,343
49.88,358
49.96,361
50.04,312
50.12,328
50.2,290
50.28,318
50.36,367
50.44,358
50.52,389
50.6,366
50.68,412
50.76,358
50.84,456
50.92,625
51,903
51.08,1021
51.16,992
51.24,761
51.32,577
51.4,424
51.48,374
51.56,341
51.64,326
51.72,374
51.8,366
51.88,347
51.96,371
52.04,392
52.12,415
52.2,422
52.28,433
52.36,470
52.44,476
52.52,453
52.6,411
52.68,386
52.76,330
52.84,322
52.92,338
53,384
53.08,463
53.16,481
53.24,474
53.32,501
53.4,413
53.48,395
53.56,367
53.64,381
53.72,366
53.8,377
53.88,355
53.96,360
54.04,391
54.12,373
54.2,403
54.28,462
54.36,527
54.44,521
54.52,473
54.6,440
54.68,396
54.76,369
54.84,384
54.92,352
55,401
55.08,432
55.16,533
55.24,567
55.32,546
55.4,516
55.48,598
55.56,784
55.64,1093
55.72,949
55.8,825
55.88,845
55.96,686
56.04,683
56.12,660
56.2,654
56.28,658
56.36,887
56.44,1299
56.52,1608
56.6,1711
56.68,1382
56.76,1351
56.84,1021
56.92,680
57,619
57.08,721
57.16,630
57.24,585
57.32,570
57.4,500
57.48,471
57.56,431
57.64,397
57.72,420
57.8,355
57.88,453
57.96,487
58.04,578
58.12,643
58.2,544
58.28,497
58.36,433
58.44,396
58.52,317
58.6,332
58.68,353
58.76,326
58.84,367
58.92,372
59,443
59.08,540
59.16,511
59.24,539
59.32,509
59.4,465
59.48,373
59.56,361
59.64,391
59.72,473
59.8,539
59.88,586
59.96,660
60.04,790
60.12,887
60.2,983
60.28,862
60.36,692
60.44,492
60.52,575
60.6,526
60.68,665
60.76,688
60.84,637
60.92,616
61,608
61.08,713
61.16,895
61.24,1035
61.32,1110
61.4,1029
61.48,849
61.56,690
61.64,551
61.72,458
61.8,397
61.88,376
61.96,322
62.04,313
62.12,320
62.2,347
62.28,389
62.36,358
62.44,332
62.52,379
62.6,328
62.68,344
62.76,335
62.84,357
62.92,346
63,359
63.08,342
63.16,351
63.24,377
63.32,332
63.4,306
63.48,278
63.56,272
63.64,270
63.72,271
63.8,303
63.88,307
63.96,305
64.04,334
64.12,315
64.2,368
64.28,368
64.36,383
64.44,365
64.52,352
64.6,360
64.68,322
64.76,362
64.84,359
64.92,387
65,372
65.08,376
65.16,365
65.24,303
65.32,312
65.4,330
65.48,258
65.56,289
65.64,274
65.72,303
65.8,357
65.88,356
65.96,399
66.04,382
66.12,426
66.2,407
66.28,390
66.36,430
66.44,546
66.52,838
66.6,1608
66.68,2340
66.76,2124
66.84,1753
66.92,1423
67,856
67.08,639
67.16,536
67.24,361
67.32,443
67.4,407
67.48,343
67.56,355
67.64,325
67.72,339
67.8,326
67.88,337
67.96,337
68.04,285
68.12,301
68.2,261
68.28,284
68.36,325
68.44,304
68.52,325
68.6,294
68.68,329
68.76,250
68.84,276
68.92,289
69,342
69.08,348
69.16,432
69.24,397
69.32,394
69.4,349
69.48,344
69.56,336
69.64,355
69.72,438
69.8,429
69.88,391
69.96,361
70.04,337
70.12,365
70.2,321
70.28,342
70.36,330
70.44,347
70.52,366
70.6,301
70.68,372
70.76,378
70.84,292
70.92,415
71,394
71.08,359
71.16,382
71.24,366
71.32,318
71.4,301
71.48,252
71.56,280
71.64,290
71.72,327
71.8,316
71.88,342
71.96,345
72.04,340
72.12,386
72.2,381
72.28,496
72.36,596
72.44,688
72.52,685
72.6,651
72.68,670
72.76,557
72.84,559
72.92,557
73,571
73.08,597
73.16,580
73.24,574
73.32,560
73.4,605
73.48,657
73.56,694
73.64,698
73.72,626
73.8,578
73.88,593
73.96,491
74.04,462
74.12,411
74.2,392
74.28,350
74.36,342
74.44,309
74.52,303
74.6,322
74.68,283
74.76,270
74.84,256
74.92,263
75,277
75.08,300
75.16,358
75.24,372
75.32,363
75.4,389
75.48,373
75.56,450
75.64,500
75.72,545
75.8,506
75.88,429
75.96,361
76.04,404
76.12,290
76.2,322
76.28,303
76.36,329
76.44,336
76.52,403
76.6,394
76.68,382
76.76,418
76.84,387
76.92,395
77,428
77.08,473
77.16,450
77.24,443
77.32,371
77.4,381
77.48,495
77.56,495
77.64,452
77.72,464
77.8,430
77.88,474
77.96,488
78.04,533
78.12,540
78.2,564
78.28,538
78.36,454
78.44,455
78.52,397
78.6,387
78.68,399
78.76,320
78.84,392
78.92,381
79,309
79.08,327
79.16,340
79.24,411
79.32,395
79.4,429
79.48,531
79.56,511
79.64,681
79.72,886
79.8,995
79.88,864
79.96,862
80.04,885
80.12,640
80.2,475
80.28,432
80.36,265
80.44,205
80.52,216
80.6,214
80.68,213
80.76,236
80.84,228
80.92,282
81,259
81.08,260
81.16,246
81.24,225
81.32,265
81.4,234
81.48,187
81.56,240
81.64,265
81.72,237
81.8,316
81.88,291
81.96,341
82.04,437
82.12,495
82.2,442
82.28,488
82.36,437
82.44,382
82.52,344
82.6,262
82.68,238
82.76,186
82.84,237
82.92,243
83,227
83.08,257
83.16,241
83.24,272
83.32,255
83.4,255
83.48,224
83.56,270
83.64,301
83.72,270
83.8,301
83.88,300
83.96,254
84.04,223
84.12,238
84.2,207
84.28,199
84.36,223
84.44,230
84.52,176
84.6,223
84.68,192
84.76,160
84.84,192
84.92,192
85,277
85.08,238
85.16,253
85.24,238
85.32,255
85.4,209
85.48,258
85.56,200
85.64,234
85.72,244
85.8,238
85.88,229
85.96,243
86.04,294
86.12,245
86.2,252
86.28,188
86.36,251
86.44,252
86.52,229
86.6,153
86.68,207
86.76,269
86.84,246
86.92,233
87,299
87.08,367
87.16,280
87.24,337
87.32,298
87.4,241
87.48,275
87.56,223
87.64,249
87.72,200
87.8,243
87.88,235
87.96,227
88.04,151
88.12,184
88.2,280
88.28,230
88.36,234
88.44,259
88.52,246
88.6,238
88.68,293
88.76,277
88.84,340
88.92,308
89,276
89.08,306
89.16,265
89.24,301
89.32,251
89.4,218
89.48,209
89.56,264
89.64,267
89.72,302
89.8,277
89.88,377
89.96,429
90.04,432
90.12,399
90.2,364
90.28,328
90.36,304
90.44,282
90.52,291
90.6,278
90.68,256
90.76,283
90.84,296
90.92,307
91,307
91.08,320
91.16,311
91.24,282
91.32,277
91.4,264
91.48,272
91.56,248
91.64,228
91.72,227
91.8,222
91.88,265
91.96,278
92.04,240
92.12,247
92.2,236
92.28,241
92.36,216
92.44,214
92.52,236
92.6,213
92.68,214
92.76,231
92.84,220
92.92,219
93,253
93.08,245
93.16,291
93.24,316
93.32,329
93.4,306
93.48,350
93.56,324
93.64,394
93.72,302
93.8,298
93.88,283
93.96,300
94.04,251
94.12,287
94.2,288
94.28,292
94.36,305
94.44,289
94.52,317
94.6,309
94.68,345
94.76,330
94.84,335
94.92,319
95,327
95.08,328
95.16,293
95.24,295
95.32,320
95.4,299
95.48,296
95.56,326
95.64,300
95.72,287
95.8,261
95.88,311
95.96,242
96.04,256
96.12,231
96.2,257
96.28,248
96.36,268
96.44,260
96.52,268
96.6,269
96.68,232
96.76,257
96.84,235
96.92,268
97,279
97.08,242
97.16,331
97.24,286
97.32,310
97.4,295
97.48,302
97.56,279
97.64,289
97.72,251
97.8,277
97.88,279
97.96,287
98.04,296
98.12,248
98.2,247
98.28,308
98.36,293
98.44,386
98.52,373
98.6,389
98.68,359
98.76,398
98.84,358
98.92,355
99,305
99.08,302
99.16,268
99.24,250
99.32,233
99.4,262
99.48,309
99.56,286
99.64,296
99.72,312
99.8,310
99.88,287
99.96,294
100.04,340
100.12,256
100.2,280
100.28,235
100.36,309
100.44,337
100.52,272
100.6,394
100.68,385
100.76,419
100.84,358
100.92,434
101,374
101.08,355
101.16,344
101.24,354
101.32,334
101.4,307
101.48,356
101.56,313
101.64,332
101.72,352
101.8,339
101.88,339
101.96,307
102.04,365
102.12,330
102.2,342
102.28,338
102.36,295
102.44,299
102.52,235
102.6,218
102.68,241
102.76,210
102.84,217
102.92,232
103,247
103.08,233
103.16,217
103.24,295
103.32,234
103.4,242
103.48,235
103.56,205
103.64,250
103.72,236
103.8,268
103.88,268
103.96,293
104.04,334
104.12,336
104.2,352
104.28,383
104.36,360
104.44,399
104.52,291
104.6,400
104.68,346
104.76,316
104.84,317
104.92,294
105,302
105.08,327
105.16,288
105.24,320
105.32,266
105.4,235
105.48,289
105.56,288
105.64,233
105.72,271
105.8,261
105.88,253
105.96,292
106.04,354
106.12,292
106.2,291
106.28,321
106.36,367
106.44,380
106.52,348
106.6,332
106.68,339
106.76,362
106.84,346
106.92,354
107,286
107.08,288
107.16,275
107.24,309
107.32,250
107.4,299
107.48,292
107.56,301
107.64,309
107.72,301
107.8,268
107.88,267
107.96,312
108.04,264
108.12,248
108.2,247
108.28,324
108.36,308
108.44,307
108.52,306
108.6,329
108.68,313
108.76,321
108.84,321
108.92,322
109,323
109.08,294
109.16,327
109.24,329
109.32,354
109.4,363
109.48,334
109.56,365
109.64,351
109.72,350
109.8,380
109.88,309
109.96,315
110.04,330
110.12,345
110.2,360
110.28,313
110.36,291
110.44,300
110.52,270
110.6,301
110.68,301
110.76,285
110.84,307
110.92,344
111,296
111.08,264
111.16,310
111.24,279
111.32,295
111.4,358
111.48,313
111.56,347
111.64,379
111.72,364
111.8,426
111.88,379
111.96,432
112.04,446
112.12,475
112.2,420
112.28,403
112.36,372
112.44,357
112.52,422
112.6,441
112.68,469
112.76,413
112.84,443
112.92,417
113,468
113.08,547
113.16,564
113.24,454
113.32,483
113.4,465
113.48,478
113.56,505
113.64,478
113.72,437
113.8,403
113.88,371
113.96,307
114.04,306
114.12,258
114.2,326
114.28,270
114.36,268
114.44,275
114.52,296
114.6,263
114.68,262
114.76,245
114.84,252
114.92,244
115,259
115.08,245
115.16,270
115.24,234
115.32,314
115.4,310
115.48,313
115.56,261
115.64,372
115.72,373
115.8,320
115.88,342
115.96,326
116.04,262
116.12,322
116.2,289
116.28,334
116.36,269
116.44,314
116.52,359
116.6,273
116.68,319
116.76,389
116.84,312
116.92,360
117,370
117.08,451
117.16,354
117.24,372
117.32,438
117.4,472
117.48,459
117.56,454
117.64,386
117.72,464
117.8,528
117.88,466
117.96,575
118.04,543
118.12,458
118.2,496
118.28,463
118.36,447
118.44,431
118.52,382
118.6,357
118.68,316
118.76,421
118.84,402
118.92,522
119,395
119.08,377
119.16,320
119.24,341
119.32,323
119.4,375
119.48,367
119.56,350
119.64,272
119.72,272
119.8,287
119.88,302
119.96,318
120,317