File: data/xrd_icdd_PDF/00-062-0297 (PD3).csv
3,517
3.1,493
3.2,479
3.3,492
3.4,461
3.5,429
3.6,424
3.7,424
3.8,392
3.9,378
4,349
4.1,373
4.2,322
4.3,337
4.4,370
4.5,353
4.6,303
4.7,289
4.8,291
4.9,297
5,273
5.1,252
5.2,272
5.3,263
5.4,264
5.5,267
5.6,234
5.7,228
5.8,245
5.9,227
6,243
6.1,234
6.2,219
6.3,224
6.4,207
6.5,183
6.6,198
6.7,185
6.8,191
6.9,216
7,193
7.1,162
7.2,171
7.3,168
7.4,165
7.5,141
7.6,153
7.7,169
7.8,184
7.9,142
8,151
8.1,164
8.2,157
8.3,164
8.4,149
8.5,129
8.6,133
8.7,147
8.8,119
8.9,135
9,119
9.1,133
9.2,132
9.3,129
9.4,124
9.5,112
9.6,118
9.7,119
9.8,134
9.9,133
10,119
10.1,107
10.2,114
10.3,106
10.4,94
10.5,109
10.6,109
10.7,136
10.8,94
10.9,123
11,135
11.1,88
11.2,101
11.3,81
11.4,115
11.5,100
11.6,89
11.7,93
11.8,123
11.9,103
12,105
12.1,78
12.2,83
12.3,91
12.4,85
12.5,81
12.6,102
12.7,113
12.8,95
12.9,99
13,101
13.1,97
13.2,96
13.3,79
13.4,91
13.5,87
13.6,97
13.7,121
13.8,93
13.9,90
14,96
14.1,95
14.2,68
14.3,80
14.4,93
14.5,83
14.6,90
14.7,86
14.8,67
14.9,75
15,81
15.1,81
15.2,62
15.3,73
15.4,83
15.5,85
15.6,83
15.7,56
15.8,60
15.9,74
16,68
16.1,68
16.2,79
16.3,72
16.4,91
16.5,76
16.6,80
16.7,83
16.8,64
16.9,79
17,64
17.1,69
17.2,69
17.3,55
17.4,79
17.5,54
17.6,72
17.7,59
17.8,69
17.9,80
18,58
18.1,62
18.2,72
18.3,52
18.4,75
18.5,119
18.6,327
18.7,282
18.8,63
18.9,64
19,71
19.1,70
19.2,70
19.3,63
19.4,78
19.5,59
19.6,60
19.7,67
19.8,80
19.9,65
20,61
20.1,51
20.2,67
20.3,50
20.4,67
20.5,133
20.6,81
20.7,57
20.8,66
20.9,61
21,69
21.1,64
21.2,60
21.3,50
21.4,79
21.5,1116
21.6,1100
21.7,139
21.8,85
21.9,95
22,68
22.1,63
22.2,58
22.3,60
22.4,56
22.5,67
22.6,63
22.7,62
22.8,61
22.9,61
23,60
23.1,64
23.2,63
23.3,68
23.4,66
23.5,54
23.6,75
23.7,75
23.8,63
23.9,81
24,122
24.1,792
24.2,508
24.3,92
24.4,74
24.5,65
24.6,65
24.7,49
24.8,66
24.9,59
25,66
25.1,57
25.2,56
25.3,50
25.4,59
25.5,58
25.6,68
25.7,54
25.8,64
25.9,66
26,69
26.1,42
26.2,56
26.3,47
26.4,72
26.5,59
26.6,66
26.7,50
26.8,71
26.9,58
27,53
27.1,64
27.2,66
27.3,70
27.4,51
27.5,84
27.6,78
27.7,109
27.8,100
27.9,88
28,69
28.1,59
28.2,65
28.3,62
28.4,59
28.5,56
28.6,66
28.7,69
28.8,73
28.9,80
29,83
29.1,202
29.2,367
29.3,207
29.4,197
29.5,145
29.6,157
29.7,146
29.8,181
29.9,177
30,177
30.1,213
30.2,214
30.3,334
30.4,837
30.5,8321
30.6,17036
30.7,32029
30.8,19328
30.9,4141
31,834
31.1,532
31.2,356
31.3,257
31.4,304
31.5,274
31.6,200
31.7,205
31.8,167
31.9,169
32,154
32.1,114
32.2,128
32.3,134
32.4,389
32.5,368
32.6,149
32.7,96
32.8,114
32.9,89
33,51
33.1,78
33.2,71
33.3,64
33.4,50
33.5,64
33.6,59
33.7,63
33.8,126
33.9,97
34,66
34.1,59
34.2,64
34.3,130
34.4,133
34.5,184
34.6,96
34.7,59
34.8,51
34.9,46
35,63
35.1,40
35.2,52
35.3,51
35.4,51
35.5,49
35.6,58
35.7,51
35.8,46
35.9,91
36,202
36.1,330
36.2,807
36.3,409
36.4,92
36.5,66
36.6,48
36.7,55
36.8,54
36.9,54
37,47
37.1,61
37.2,44
37.3,50
37.4,53
37.5,53
37.6,111
37.7,345
37.8,364
37.9,306
38,228
38.1,104
38.2,61
38.3,62
38.4,55
38.5,37
38.6,48
38.7,49
38.8,45
38.9,58
39,65
39.1,85
39.2,62
39.3,117
39.4,428
39.5,288
39.6,89
39.7,62
39.8,59
39.9,66
40,63
40.1,52
40.2,56
40.3,42
40.4,50
40.5,52
40.6,57
40.7,45
40.8,127
40.9,217
41,186
41.1,147
41.2,72
41.3,58
41.4,44
41.5,47
41.6,53
41.7,55
41.8,56
41.9,70
42,113
42.1,87
42.2,50
42.3,71
42.4,77
42.5,63
42.6,77
42.7,69
42.8,69
42.9,87
43,84
43.1,73
43.2,89
43.3,106
43.4,107
43.5,134
43.6,210
43.7,315
43.8,1099
43.9,11858
44,8877
44.1,3187
44.2,960
44.3,617
44.4,299
44.5,160
44.6,168
44.7,121
44.8,111
44.9,97
45,85
45.1,122
45.2,204
45.3,774
45.4,533
45.5,237
45.6,92
45.7,96
45.8,84
45.9,83
46,73
46.1,69
46.2,66
46.3,87
46.4,81
46.5,68
46.6,64
46.7,56
46.8,67
46.9,76
47,62
47.1,62
47.2,51
47.3,62
47.4,66
47.5,58
47.6,51
47.7,43
47.8,48
47.9,60
48,109
48.1,169
48.2,172
48.3,102
48.4,103
48.5,174
48.6,221
48.7,198
48.8,80
48.9,54
49,74
49.1,82
49.2,303
49.3,228
49.4,417
49.5,360
49.6,224
49.7,106
49.8,58
49.9,50
50,58
50.1,62
50.2,80
50.3,75
50.4,98
50.5,662
50.6,714
50.7,572
50.8,175
50.9,199
51,161
51.1,77
51.2,87
51.3,61
51.4,62
51.5,75
51.6,72
51.7,77
51.8,85
51.9,75
52,76
52.1,78
52.2,102
52.3,85
52.4,71
52.5,66
52.6,85
52.7,79
52.8,78
52.9,81
53,78
53.1,89
53.2,106
53.3,100
53.4,128
53.5,96
53.6,99
53.7,103
53.8,101
53.9,123
54,133
54.1,216
54.2,487
54.3,3829
54.4,4800
54.5,6504
54.6,6957
54.7,6519
54.8,4147
54.9,2626
55,490
55.1,291
55.2,200
55.3,202
55.4,172
55.5,177
55.6,195
55.7,211
55.8,209
55.9,128
56,100
56.1,86
56.2,97
56.3,103
56.4,94
56.5,98
56.6,84
56.7,83
56.8,86
56.9,98
57,123
57.1,98
57.2,86
57.3,87
57.4,92
57.5,85
57.6,129
57.7,134
57.8,139
57.9,92
58,105
58.1,131
58.2,165
58.3,116
58.4,110
58.5,76
58.6,69
58.7,75
58.8,62
58.9,58
59,85
59.1,87
59.2,72
59.3,78
59.4,51
59.5,61
59.6,80
59.7,45
59.8,62
59.9,59
60,58
60.1,76
60.2,149
60.3,298
60.4,230
60.5,223
60.6,102
60.7,71
60.8,67
60.9,67
61,59
61.1,63
61.2,60
61.3,54
61.4,81
61.5,60
61.6,59
61.7,68
61.8,78
61.9,74
62,59
62.1,76
62.2,70
62.3,58
62.4,58
62.5,77
62.6,66
62.7,69
62.8,59
62.9,73
63,73
63.1,75
63.2,59
63.3,81
63.4,142
63.5,697
63.6,551
63.7,940
63.8,3072
63.9,2166
64,3110
64.1,2057
64.2,1155
64.3,708
64.4,282
64.5,143
64.6,256
64.7,165
64.8,186
64.9,134
65,93
65.1,68
65.2,73
65.3,79
65.4,63
65.5,63
65.6,55
65.7,71
65.8,81
65.9,74
66,79
66.1,74
66.2,54
66.3,83
66.4,64
66.5,71
66.6,67
66.7,61
66.8,55
66.9,66
67,94
67.1,112
67.2,140
67.3,109
67.4,155
67.5,105
67.6,92
67.7,78
67.8,79
67.9,100
68,122
68.1,166
68.2,161
68.3,140
68.4,115
68.5,82
68.6,100
68.7,63
68.8,80
68.9,62
69,76
69.1,66
69.2,101
69.3,246
69.4,128
69.5,140
69.6,92
69.7,75
69.8,61
69.9,69
70,53
70.1,53
70.2,72
70.3,62
70.4,72
70.5,54
70.6,75
70.7,72
70.8,56
70.9,77
71,54
71.1,65
71.2,63
71.3,71
71.4,67
71.5,74
71.6,69
71.7,64
71.8,100
71.9,82
72,100
72.1,169
72.2,742
72.3,652
72.4,1451
72.5,2848
72.6,2441
72.7,2365
72.8,1317
72.9,811
73,241
73.1,146
73.2,159
73.3,287
73.4,218
73.5,270
73.6,179
73.7,202
73.8,177
73.9,140
74,108
74.1,97
74.2,68
74.3,76
74.4,61
74.5,86
74.6,62
74.7,81
74.8,62
74.9,74
75,62
75.1,59
75.2,55
75.3,61
75.4,70
75.5,59
75.6,55
75.7,80
75.8,103
75.9,87
76,100
76.1,64
76.2,74
76.3,70
76.4,80
76.5,68
76.6,75
76.7,73
76.8,64
76.9,56
77,64
77.1,56
77.2,63
77.3,74
77.4,84
77.5,181
77.6,325
77.7,295
77.8,279
77.9,167
78,152
78.1,92
78.2,68
78.3,72
78.4,65
78.5,58
78.6,86
78.7,73
78.8,49
78.9,61
79,50
79.1,69
79.2,64
79.3,56
79.4,73
79.5,55
79.6,44
79.7,53
79.8,51
79.9,73
80,52
80.1,80
80.2,70
80.3,118
80.4,437
80.5,504
80.6,262
80.7,370
80.8,347
80.9,576
81,266
81.1,661
81.2,444
81.3,235
81.4,432
81.5,273
81.6,205
81.7,163
81.8,177
81.9,122
82,102
82.1,107
82.2,77
82.3,99
82.4,73
82.5,70
82.6,62
82.7,61
82.8,61
82.9,61
83,69
83.1,61
83.2,61
83.3,78
83.4,55
83.5,58
83.6,56
83.7,78
83.8,88
83.9,70
84,83
84.1,99
84.2,93
84.3,120
84.4,109
84.5,97
84.6,103
84.7,95
84.8,89
84.9,82
85,85
85.1,83
85.2,111
85.3,248
85.4,208
85.5,130
85.6,151
85.7,117
85.8,98
85.9,100
86,75
86.1,79
86.2,61
86.3,70
86.4,77
86.5,76
86.6,75
86.7,74
86.8,80
86.9,96
87,79
87.1,62
87.2,93
87.3,66
87.4,80
87.5,69
87.6,91
87.7,78
87.8,79
87.9,106
88,105
88.1,106
88.2,210
88.3,658
88.4,665
88.5,1294
88.6,1939
88.7,1633
88.8,1735
88.9,1526
89,1357
89.1,2436
89.2,1715
89.3,1148
89.4,1187
89.5,759
89.6,440
89.7,185
89.8,168
89.9,139
90,113
90.1,108
90.2,103
90.3,91
90.4,78
90.5,84
90.6,77
90.7,78
90.8,83
90.9,98
91,66
91.1,88
91.2,72
91.3,89
91.4,80
91.5,83
91.6,69
91.7,73
91.8,97
91.9,90
92,90
92.1,67
92.2,66
92.3,72
92.4,59
92.5,55
92.6,55
92.7,55
92.8,50
92.9,67
93,64
93.1,70
93.2,85
93.3,219
93.4,233
93.5,126
93.6,159
93.7,207
93.8,100
93.9,106
94,97
94.1,94
94.2,62
94.3,81
94.4,80
94.5,70
94.6,77
94.7,60
94.8,56
94.9,67
95,52
95.1,66
95.2,54
95.3,74
95.4,56
95.5,68
95.6,73
95.7,71
95.8,75
95.9,68
96,76
96.1,72
96.2,55
96.3,61
96.4,63
96.5,86
96.6,112
96.7,343
96.8,512
96.9,301
97,282
97.1,343
97.2,222
97.3,135
97.4,90
97.5,97
97.6,120
97.7,182
97.8,181
97.9,111
98,132
98.1,165
98.2,110
98.3,80
98.4,75
98.5,72
98.6,68
98.7,72
98.8,54
98.9,58
99,63
99.1,71
99.2,58
99.3,90
99.4,71
99.5,57
99.6,49
99.7,63
99.8,60
99.9,71
100,60
100.1,65
100.2,74
100.3,104
100.4,136
100.5,169
100.6,129
100.7,136
100.8,154
100.9,168
101,118
101.1,119
101.2,116
101.3,109
101.4,111
101.5,173
101.6,176
101.7,154
101.8,152
101.9,166
102,139
102.1,134
102.2,120
102.3,95
102.4,86
102.5,90
102.6,82
102.7,69
102.8,66
102.9,75
103,78
103.1,72
103.2,77
103.3,71
103.4,62
103.5,83
103.6,69
103.7,67
103.8,69
103.9,70
104,88
104.1,89
104.2,128
104.3,140
104.4,178
104.5,314
104.6,549
104.7,507
104.8,599
104.9,965
105,1349
105.1,1302
105.2,1451
105.3,1366
105.4,871
105.5,858
105.6,879
105.7,515
105.8,276
105.9,284
106,226
106.1,158
106.2,141
106.3,115
106.4,108
106.5,92
106.6,95
106.7,78
106.8,87
106.9,79
107,61
107.1,68
107.2,69
107.3,70
107.4,86
107.5,66
107.6,80
107.7,72
107.8,75
107.9,97
108,74
108.1,75
108.2,78
108.3,84
108.4,116
108.5,113
108.6,97
108.7,86
108.8,101
108.9,96
109,109
109.1,101
109.2,100
109.3,109
109.4,81
109.5,97
109.6,123
109.7,182
109.8,243
109.9,192
110,159
110.1,143
110.2,167
110.3,136
110.4,106
110.5,91
110.6,83
110.7,100
110.8,77
110.9,71
111,87
111.1,82
111.2,73
111.3,86
111.4,66
111.5,72
111.6,73
111.7,76
111.8,53
111.9,73
112,74
112.1,92
112.2,87
112.3,77
112.4,99
112.5,103
112.6,127
112.7,254
112.8,374
112.9,267
113,198
113.1,246
113.2,514
113.3,810
113.4,820
113.5,715
113.6,854
113.7,892
113.8,797
113.9,741
114,903
114.1,584
114.2,405
114.3,303
114.4,332
114.5,266
114.6,144
114.7,132
114.8,97
114.9,87
115,98
115.1,94
115.2,95
115.3,73
115.4,79
115.5,78
115.6,87
115.7,81
115.8,81
115.9,88
116,85
116.1,69
116.2,87
116.3,86
116.4,77
116.5,90
116.6,83
116.7,65
116.8,109
116.9,98
117,95
117.1,116
117.2,187
117.3,165
117.4,147
117.5,140
117.6,161
117.7,190
117.8,166
117.9,113
118,113
118.1,134
118.2,103
118.3,139
118.4,136
118.5,137
118.6,103
118.7,123
118.8,124
118.9,117
119,123
119.1,97
119.2,116
119.3,133
119.4,112
119.5,95
119.6,72
119.7,82
119.8,93
119.9,96
120,86
120.1,75
120.2,82
120.3,83
120.4,81
120.5,85
120.6,54
120.7,76
120.8,60
120.9,61
121,69
121.1,77
121.2,81
121.3,96
121.4,101
121.5,113
121.6,183
121.7,271
121.8,257
121.9,250
122,360
122.1,346
122.2,287
122.3,228
122.4,217
122.5,289
122.6,393
122.7,490
122.8,398
122.9,340
123,353
123.1,349
123.2,522
123.3,579
123.4,542
123.5,469
123.6,396
123.7,328
123.8,335
123.9,347
124,268
124.1,255
124.2,213
124.3,146
124.4,139
124.5,144
124.6,122
124.7,108
124.8,91
124.9,109
125,101
125.1,98
125.2,95
125.3,101
125.4,101
125.5,97
125.6,111
125.7,99
125.8,97
125.9,105
126,74
126.1,79
126.2,112
126.3,114
126.4,105
126.5,87
126.6,97
126.7,100
126.8,87
126.9,93
127,72
127.1,95
127.2,95
127.3,95
127.4,91
127.5,96
127.6,100
127.7,93
127.8,109
127.9,86
128,117
128.1,112
128.2,151
128.3,129
128.4,138
128.5,136
128.6,136
128.7,159
128.8,129
128.9,133
129,108
129.1,110
129.2,126
129.3,135
129.4,108
129.5,85
129.6,113
129.7,85
129.8,91
129.9,111
130,94
130.1,78
130.2,89
130.3,80
130.4,85
130.5,92
130.6,102
130.7,89
130.8,94
130.9,82
131,87
131.1,100
131.2,86
131.3,98
131.4,110
131.5,141
131.6,203
131.7,290
131.8,292
131.9,274
132,246
132.1,217
132.2,319
132.3,351
132.4,389
132.5,329
132.6,332
132.7,336
132.8,314
132.9,356
133,457
133.1,449
133.2,417
133.3,353
133.4,424
133.5,521
133.6,668
133.7,501
133.8,328
133.9,227
134,248
134.1,250
134.2,302
134.3,330
134.4,196
134.5,163
134.6,116
134.7,113
134.8,99
134.9,107
135,126
135.1,123
135.2,122
135.3,116
135.4,110
135.5,105
135.6,110
135.7,106
135.8,89
135.9,113
136,106
136.1,109
136.2,116
136.3,121
136.4,111
136.5,87
136.6,100
136.7,93
136.8,150
136.9,182
137,164
137.1,132
137.2,126
137.3,149
137.4,129
137.5,132
137.6,162
137.7,140
137.8,145
137.9,151
138,171
138.1,170
138.2,236
138.3,226
138.4,256
138.5,243
138.6,221
138.7,192
138.8,209
138.9,141
139,174
139.1,179
139.2,256
139.3,239
139.4,217
139.5,223
139.6,214
139.7,216
139.8,214
139.9,193
139.98,186