File: data/xrd_icdd_PDF/00-063-0566 (PD3).csv
13,455
13.1,441
13.2,473
13.3,466
13.4,413
13.5,430
13.6,450
13.7,462
13.8,451
13.9,451
14,456
14.1,459
14.2,457
14.3,460
14.4,470
14.5,483
14.6,513
14.7,470
14.8,522
14.9,446
15,499
15.1,504
15.2,520
15.3,514
15.4,516
15.5,480
15.6,495
15.7,529
15.8,484
15.9,544
16,504
16.1,556
16.2,507
16.3,488
16.4,531
16.5,537
16.6,498
16.7,486
16.8,465
16.9,498
17,469
17.1,471
17.2,461
17.3,468
17.4,517
17.5,611
17.6,488
17.7,548
17.8,544
17.9,662
18,730
18.1,1208
18.2,6369
18.3,22612
18.4,2928
18.5,933
18.6,655
18.7,535
18.8,525
18.9,517
19,509
19.1,480
19.2,489
19.3,456
19.4,444
19.5,511
19.6,512
19.7,544
19.8,2095
19.9,945
20,545
20.1,492
20.2,476
20.3,528
20.4,512
20.5,566
20.6,671
20.7,1942
20.8,1883
20.9,613
21,460
21.1,486
21.2,484
21.3,380
21.4,415
21.5,501
21.6,423
21.7,423
21.8,435
21.9,428
22,392
22.1,438
22.2,408
22.3,403
22.4,406
22.5,390
22.6,400
22.7,466
22.8,421
22.9,470
23,464
23.1,492
23.2,959
23.3,1995
23.4,721
23.5,492
23.6,422
23.7,420
23.8,384
23.9,400
24,406
24.1,384
24.2,413
24.3,416
24.4,394
24.5,379
24.6,437
24.7,414
24.8,413
24.9,406
25,404
25.1,369
25.2,403
25.3,367
25.4,408
25.5,398
25.6,408
25.7,398
25.8,387
25.9,392
26,394
26.1,358
26.2,394
26.3,379
26.4,366
26.5,364
26.6,418
26.7,423
26.8,407
26.9,506
27,758
27.1,1305
27.2,688
27.3,414
27.4,409
27.5,376
27.6,355
27.7,388
27.8,367
27.9,358
28,383
28.1,354
28.2,409
28.3,411
28.4,360
28.5,374
28.6,373
28.7,365
28.8,380
28.9,379
29,373
29.1,395
29.2,398
29.3,371
29.4,358
29.5,411
29.6,350
29.7,378
29.8,362
29.9,335
30,359
30.1,375
30.2,410
30.3,372
30.4,396
30.5,326
30.6,372
30.7,346
30.8,320
30.9,369
31,357
31.1,394
31.2,396
31.3,368
31.4,411
31.5,384
31.6,590
31.7,939
31.8,615
31.9,414
32,351
32.1,368
32.2,350
32.3,366
32.4,389
32.5,349
32.6,411
32.7,371
32.8,373
32.9,409
33,388
33.1,381
33.2,433
33.3,375
33.4,348
33.5,394
33.6,359
33.7,431
33.8,438
33.9,399
34,376
34.1,383
34.2,382
34.3,394
34.4,438
34.5,408
34.6,383
34.7,417
34.8,479
34.9,524
35,755
35.1,1983
35.2,8297
35.3,4948
35.4,1172
35.5,621
35.6,458
35.7,470
35.8,414
35.9,426
36,387
36.1,422
36.2,442
36.3,402
36.4,409
36.5,436
36.6,549
36.7,819
36.8,3349
36.9,3161
37,1868
37.1,1338
37.2,676
37.3,485
37.4,446
37.5,405
37.6,360
37.7,384
37.8,402
37.9,413
38,381
38.1,379
38.2,362
38.3,368
38.4,374
38.5,367
38.6,404
38.7,346
38.8,428
38.9,377
39,369
39.1,380
39.2,351
39.3,356
39.4,395
39.5,389
39.6,349
39.7,408
39.8,417
39.9,399
40,345
40.1,366
40.2,514
40.3,456
40.4,400
40.5,410
40.6,457
40.7,615
40.8,529
40.9,412
41,429
41.1,354
41.2,392
41.3,379
41.4,381
41.5,389
41.6,396
41.7,411
41.8,388
41.9,407
42,417
42.1,494
42.2,672
42.3,707
42.4,584
42.5,645
42.6,847
42.7,2055
42.8,5942
42.9,8452
43,4594
43.1,1183
43.2,620
43.3,518
43.4,418
43.5,458
43.6,415
43.7,400
43.8,421
43.9,415
44,359
44.1,411
44.2,407
44.3,409
44.4,428
44.5,590
44.6,460
44.7,398
44.8,427
44.9,373
45,399
45.1,382
45.2,405
45.3,394
45.4,391
45.5,354
45.6,341
45.7,350
45.8,360
45.9,383
46,365
46.1,357
46.2,377
46.3,405
46.4,389
46.5,400
46.6,431
46.7,462
46.8,805
46.9,2190
47,2324
47.1,1355
47.2,593
47.3,410
47.4,405
47.5,467
47.6,510
47.7,460
47.8,404
47.9,371
48,376
48.1,406
48.2,495
48.3,436
48.4,380
48.5,424
48.6,369
48.7,360
48.8,366
48.9,355
49,370
49.1,325
49.2,372
49.3,351
49.4,332
49.5,340
49.6,331
49.7,408
49.8,332
49.9,376
50,392
50.1,320
50.2,402
50.3,364
50.4,379
50.5,364
50.6,384
50.7,370
50.8,367
50.9,350
51,345
51.1,367
51.2,379
51.3,353
51.4,427
51.5,465
51.6,424
51.7,399
51.8,361
51.9,331
52,389
52.1,344
52.2,355
52.3,323
52.4,331
52.5,363
52.6,361
52.7,315
52.8,338
52.9,360
53,363
53.1,354
53.2,350
53.3,350
53.4,375
53.5,337
53.6,351
53.7,367
53.8,361
53.9,401
54,423
54.1,445
54.2,439
54.3,464
54.4,540
54.5,627
54.6,491
54.7,434
54.8,334
54.9,395
55,381
55.1,374
55.2,346
55.3,375
55.4,379
55.5,372
55.6,516
55.7,564
55.8,599
55.9,518
56,418
56.1,370
56.2,374
56.3,369
56.4,430
56.5,587
56.6,908
56.7,1448
56.8,1984
56.9,1533
57,916
57.1,589
57.2,417
57.3,408
57.4,433
57.5,480
57.6,483
57.7,437
57.8,397
57.9,374
58,345
58.1,380
58.2,362
58.3,372
58.4,385
58.5,351
58.6,338
58.7,341
58.8,331
58.9,354
59,386
59.1,397
59.2,358
59.3,352
59.4,357
59.5,332
59.6,330
59.7,373
59.8,378
59.9,381
60,356
60.1,456
60.2,486
60.3,511
60.4,410
60.5,434
60.6,442
60.7,444
60.8,473
60.9,433
61,412
61.1,408
61.2,389
61.3,344
61.4,365
61.5,385
61.6,374
61.7,427
61.8,478
61.9,688
62,1927
62.1,2385
62.2,2279
62.3,2439
62.4,1905
62.5,1313
62.6,896
62.7,480
62.8,400
62.9,413
63,372
63.1,396
63.2,421
63.3,427
63.4,427
63.5,501
63.6,441
63.7,413
63.8,371
63.9,377
64,388
64.1,364
64.2,376
64.3,347
64.4,380
64.5,373
64.6,414
64.7,351
64.8,377
64.9,404
65,459
65.1,637
65.2,1324
65.3,1847
65.4,1278
65.5,1105
65.6,613
65.7,399
65.8,359
65.9,368
66,406
66.1,433
66.2,433
66.3,386
66.4,351
66.5,348
66.6,375
66.7,361
66.8,310
66.9,349
67,351
67.1,375
67.2,432
67.3,406
67.4,449
67.5,412
67.6,414
67.7,424
67.8,401
67.9,344
68,414
68.1,341
68.2,369
68.3,330
68.4,355
68.5,337
68.6,390
68.7,350
68.8,333
68.9,338
69,320
69.1,338
69.2,363
69.3,359
69.4,352
69.5,367
69.6,357
69.7,342
69.8,331
69.9,336
70,365
70.1,387
70.2,339
70.3,313
70.4,366
70.5,323
70.6,305
70.7,318
70.8,342
70.9,377
71,363
71.1,318
71.2,318
71.3,343
71.4,349
71.5,382
71.6,363
71.7,406
71.8,435
71.9,405
72,377
72.1,387
72.2,386
72.3,339
72.4,335
72.5,375
72.6,321
72.7,350
72.8,367
72.9,332
73,335
73.1,389
73.2,430
73.3,665
73.4,841
73.5,655
73.6,663
73.7,434
73.8,355
73.9,358
74,353
74.1,397
74.2,469
74.3,675
74.4,966
74.5,975
74.6,1089
74.7,900
74.8,817
74.9,579
75,478
75.1,428
75.2,422
75.3,386
75.4,380
75.5,324
75.6,366
75.7,329
75.8,350
75.9,362
76,336
76.1,320
76.2,366
76.3,353
76.4,361
76.5,396
76.6,375
76.7,388
76.8,454
76.9,485
77,468
77.1,422
77.2,398
77.3,394
77.4,382
77.5,356
77.6,378
77.7,358
77.8,408
77.9,437
78,453
78.1,479
78.2,596
78.3,1227
78.4,891
78.5,749
78.6,815
78.7,573
78.8,561
78.9,600
79,472
79.1,469
79.2,358
79.3,393
79.4,423
79.5,395
79.6,381
79.7,404
79.8,393
79.9,372
80,383
80.1,351
80.2,356
80.3,339
80.4,347
80.5,350
80.6,335
80.7,335
80.8,337
80.9,414
81,407
81.1,464
81.2,535
81.3,632
81.4,586
81.5,654
81.6,721
81.7,739
81.8,619
81.9,493
82,477
82.1,429
82.2,419
82.3,400
82.4,404
82.5,394
82.6,393
82.7,353
82.8,358
82.9,340
83,352
83.1,350
83.2,326
83.3,324
83.4,351
83.5,351
83.6,361
83.7,378
83.8,297
83.9,345
84,332
84.1,338
84.2,359
84.3,359
84.4,365
84.5,376
84.6,356
84.7,343
84.8,378
84.9,356
85,360
85.1,354
85.2,408
85.3,380
85.4,377
85.5,325
85.6,353
85.7,376
85.8,327
85.9,340
86,326
86.1,336
86.2,336
86.3,397
86.4,347
86.5,344
86.6,346
86.7,333
86.8,335
86.9,353
87,373
87.1,392
87.2,369
87.3,337
87.4,343
87.5,353
87.6,338
87.7,326
87.8,339
87.9,322
88,381
88.1,392
88.2,425
88.3,430
88.4,409
88.5,368
88.6,390
88.7,428
88.8,461
88.9,619
89,698
89.1,677
89.2,792
89.3,627
89.4,560
89.5,480
89.6,399
89.7,406
89.8,380
89.9,386
90,406
90.1,366
90.2,322
90.3,337
90.4,376
90.5,360
90.6,341
90.7,321
90.8,325
90.9,332
91,344
91.1,344
91.2,337
91.3,329
91.4,362
91.5,328
91.6,343
91.7,302
91.8,355
91.9,340
92,349
92.1,340
92.2,357
92.3,371
92.4,383
92.5,357
92.6,362
92.7,357
92.8,347
92.9,332
93,384
93.1,334
93.2,334
93.3,376
93.4,398
93.5,424
93.6,468
93.7,495
93.8,553
93.9,608
94,512
94.1,487
94.2,488
94.3,398
94.4,395
94.5,345
94.6,386
94.7,348
94.8,374
94.9,352
95,372
95.1,362
95.2,345
95.3,374
95.4,359
95.5,395
95.6,354
95.7,347
95.8,309
95.9,310
96,356
96.1,352
96.2,363
96.3,366
96.4,334
96.5,354
96.6,366
96.7,374
96.8,393
96.9,403
97,463
97.1,440
97.2,480
97.3,456
97.4,412
97.5,441
97.6,377
97.7,354
97.8,368
97.9,337
98,344
98.1,373
98.2,401
98.3,391
98.4,376
98.5,351
98.6,376
98.7,366
98.8,360
98.9,361
99,381
99.1,366
99.2,332
99.3,348
99.4,340
99.5,347
99.6,345
99.7,344
99.8,364
99.9,331
100,361
100.1,381
100.2,414
100.3,354
100.4,359
100.5,342
100.6,338
100.7,324
100.8,356
100.9,353
101,345
101.1,343
101.2,297
101.3,305
101.4,368
101.5,324
101.6,345
101.7,363
101.8,366
101.9,377
102,397
102.1,376
102.2,382
102.3,412
102.4,365
102.5,391
102.6,387
102.7,355
102.8,373
102.9,426
103,387
103.1,390
103.2,381
103.3,358
103.4,355
103.5,348
103.6,360
103.7,354
103.8,385
103.9,402
104,493
104.1,591
104.2,562
104.3,524
104.4,441
104.5,502
104.6,486
104.7,425
104.8,417
104.9,423
105,484
105.1,623
105.2,625
105.3,525
105.4,561
105.5,573
105.6,600
105.7,510
105.8,478
105.9,473
106,486
106.1,413
106.2,386
106.3,398
106.4,400
106.5,362
106.6,365
106.7,323
106.8,318
106.9,327
107,347
107.1,371
107.2,377
107.3,349
107.4,352
107.5,357
107.6,361
107.7,335
107.8,353
107.9,354
108,356
108.1,346
108.2,368
108.3,368
108.4,344
108.5,343
108.6,383
108.7,403
108.8,427
108.9,489
109,596
109.1,754
109.2,824
109.3,850
109.4,751
109.5,829
109.6,824
109.7,858
109.8,778
109.9,705
110,594
110.1,540
110.2,480
110.3,472
110.4,422
110.5,381
110.6,354
110.7,343
110.8,365
110.9,371
111,388
111.1,385
111.2,379
111.3,359
111.4,366
111.5,373
111.6,355
111.7,362
111.8,383
111.9,407
112,411
112.1,485
112.2,477
112.3,586
112.4,515
112.5,514
112.6,540
112.7,604
112.8,553
112.9,486
113,436
113.1,404
113.2,445
113.3,436
113.4,413
113.5,409
113.6,400
113.7,354
113.8,370
113.9,352
114,353
114.1,347
114.2,375
114.3,304
114.4,341
114.5,354
114.6,368
114.7,297
114.8,359
114.9,328
115,338
115.1,309
115.2,373
115.3,360
115.4,377
115.5,367
115.6,356
115.7,349
115.8,340
115.9,356
116,354
116.1,398
116.2,362
116.3,333
116.4,382
116.5,352
116.6,388
116.7,330
116.8,338
116.9,351
117,336
117.1,356
117.2,332
117.3,346
117.4,334
117.5,350
117.6,356
117.7,356
117.8,326
117.9,333
118,326
118.1,362
118.2,353
118.3,352
118.4,330
118.5,334
118.6,387
118.7,360
118.8,407
118.9,381
119,357
119.1,344
119.2,356
119.3,404
119.4,332
119.5,415
119.6,356
119.7,385
119.8,361
119.9,374
120,384
120.1,346
120.2,418
120.3,410
120.4,436
120.5,431
120.6,438
120.7,474
120.8,515
120.9,561
121,545
121.1,535
121.2,536
121.3,481
121.4,480
121.5,503
121.6,426
121.7,442
121.8,394
121.9,408
122,391
122.1,332
122.2,323
122.3,392
122.4,332
122.5,381
122.6,367
122.7,386
122.8,333
122.9,354
123,372
123.1,347
123.2,350
123.3,308
123.4,328
123.5,356
123.6,381
123.7,363
123.8,340
123.9,354
124,358
124.1,386
124.2,346
124.3,383
124.4,321
124.5,359
124.6,358
124.7,344
124.8,396
124.9,389
125,366
125.1,418
125.2,365
125.3,356
125.4,387
125.5,342
125.6,370
125.7,383
125.8,422
125.9,403
126,409
126.1,445
126.2,507
126.3,562
126.4,739
126.5,687
126.6,660
126.7,753
126.8,743
126.9,662
127,626
127.1,602
127.2,583
127.3,591
127.4,578
127.5,570
127.6,525
127.7,490
127.8,508
127.9,466
128,438
128.1,463
128.2,432
128.3,433
128.4,414
128.5,379
128.6,376
128.7,381
128.8,406
128.9,343
129,388
129.1,377
129.2,350
129.3,379
129.4,340
129.5,389
129.6,402
129.7,408
129.8,491
129.9,512
130,609
130.1,619
130.2,522
130.3,472
130.4,482
130.5,462
130.6,517
130.7,473
130.8,502
130.9,456
131,461
131.1,436
131.2,440
131.3,409
131.4,440
131.5,415
131.6,422
131.7,370
131.8,422
131.9,406
132,399
132.1,422
132.2,370
132.3,394
132.4,443
132.5,438
132.6,426
132.7,400
132.8,413
132.9,438
133,407