File: data/xrd_icdd_PDF/00-064-0101 (PD3).csv
20.015,1588.01
20.066,1570.05
20.117,1571.23
20.168,1528.98
20.219,1595.72
20.27,1581.84
20.321,1557.07
20.372,1591.09
20.423,1561.74
20.474,1577.89
20.525,1554.38
20.576,1543.9
20.627,1580.24
20.678,1491.66
20.729,1591.87
20.78,1574.45
20.831,1604.68
20.882,1576.1
20.933,1578.22
20.984,1532.34
21.035,1561.65
21.086,1570.93
21.137,1544.95
21.188,1541.76
21.239,1534.04
21.29,1600.8
21.341,1564.36
21.392,1558.95
21.443,1542.1
21.494,1565.41
21.545,1551.8
21.596,1551.231
21.647,1525.33
21.698,1572.88
21.749,1533.072
21.8,1568.7
21.851,1524.86
21.902,1556.98
21.953,1531.1
22.004,1513.37
22.055,1483.94
22.106,1504.18
22.157,1476.74
22.208,1544.14
22.259,1501.03
22.31,1528.85
22.361,1526.96
22.412,1542.43
22.463,1533.43
22.514,1546.15
22.565,1513.08
22.616,1530.22
22.667,1550.28
22.718,1481.84
22.769,1517.82
22.82,1591.46
22.871,1561.46
22.922,1481.15
22.973,1538.31
23.024,1484.16
23.075,1498.94
23.126,1576.21
23.177,1541.091
23.228,1534.19
23.279,1533.23
23.33,1593.39
23.381,1573.94
23.432,1550.86
23.483,1616.03
23.534,1595.738
23.585,1652.11
23.636,1683.62
23.687,1698.05
23.738,1838.35
23.789,1964.74
23.84,2107.96
23.891,2452.2
23.942,2986.61
23.993,4001.43
24.044,4667.73
24.095,4174.66
24.146,3202.04
24.197,2579.06
24.248,2225.455
24.299,2197.84
24.35,2289.4
24.401,2507.47
24.452,2500.636
24.503,2312.2
24.554,1974.01
24.605,1900.01
24.656,1777.59
24.707,1690.446
24.758,1707.21
24.809,1600.418
24.86,1593.55
24.911,1587.214
24.962,1549.41
25.013,1506.74
25.064,1574.03
25.115,1555.91
25.166,1559.98
25.217,1524.53
25.268,1544.34
25.319,1589.09
25.37,1547.49
25.421,1472.24
25.472,1527.1
25.523,1537.79
25.574,1519.933
25.625,1465.68
25.676,1484.512
25.727,1526.23
25.778,1469.66
25.829,1495.74
25.88,1542.19
25.931,1501.94
25.982,1586.87
26.033,1524.73
26.084,1605.26
26.135,1716.13
26.186,1787.46
26.237,1846.429
26.288,1767.97
26.339,1693.39
26.39,1620.16
26.441,1572.72
26.492,1589.89
26.543,1577.59
26.594,1529.56
26.645,1532.84
26.696,1541.92
26.747,1521.6
26.798,1531.48
26.849,1510.09
26.9,1523.01
26.951,1475.57
27.002,1472.3
27.053,1473.888
27.104,1492.48
27.155,1465.3
27.206,1488.54
27.257,1536.73
27.308,1435.54
27.359,1474.1
27.41,1473.85
27.461,1463.05
27.512,1498.78
27.563,1415.3
27.614,1448.53
27.665,1550.94
27.716,1420.72
27.767,1484.73
27.818,1444.96
27.869,1418.03
27.92,1509.34
27.971,1507.505
28.022,1462.49
28.073,1468.29
28.124,1491.43
28.175,1502.528
28.226,1451.05
28.277,1450.34
28.328,1516.55
28.379,1529.55
28.43,1518.16
28.481,1507.59
28.532,1495.11
28.583,1528.17
28.634,1508.52
28.685,1513.5
28.736,1535.22
28.787,1608.95
28.838,1558.66
28.889,1731.15
28.94,1730.61
28.991,1870.364
29.042,1814.33
29.093,1718.91
29.144,1610.18
29.195,1542.11
29.246,1535.98
29.297,1505.34
29.348,1464.53
29.399,1482.82
29.45,1438.23
29.501,1518.74
29.552,1475.25
29.603,1508.98
29.654,1511.09
29.705,1436.51
29.756,1530.82
29.807,1474.87
29.858,1493.18
29.909,1453.98
29.96,1463.32
30.011,1486.07
30.062,1508.03
30.113,1480.37
30.164,1508.56
30.215,1521.7
30.266,1487.91
30.317,1499.64
30.368,1459.43
30.419,1456.18
30.47,1499.49
30.521,1519.84
30.572,1430.92
30.623,1505.2
30.674,1509.1
30.725,1472.37
30.776,1471.91
30.827,1451.81
30.878,1504.87
30.929,1431.93
30.98,1544.41
31.031,1518.84
31.082,1479.61
31.133,1531.464
31.184,1491.3
31.235,1538.61
31.286,1501.24
31.337,1505.96
31.388,1530.41
31.439,1539.95
31.49,1578.39
31.541,1509.66
31.592,1652.66
31.643,1781.52
31.694,1742.6
31.745,1725.12
31.796,1641.91
31.847,1576.43
31.898,1541.4
31.949,1562.06
32,1531.841
32.051,1467.47
32.102,1505.75
32.153,1507.11
32.204,1556.076
32.255,1534.33
32.306,1587.66
32.357,1546.304
32.408,1542.91
32.459,1594.68
32.51,1499.148
32.561,1594.33
32.612,1511.43
32.663,1529.68
32.714,1478.16
32.765,1510.19
32.816,1573.87
32.867,1481.636
32.918,1565.39
32.969,1531.53
33.02,1580.86
33.071,1562.03
33.122,1587.4
33.173,1617.822
33.224,1583.46
33.275,1593.82
33.326,1616.68
33.377,1613.65
33.428,1640.34
33.479,1705.22
33.53,1657.44
33.581,1748.75
33.632,1716.15
33.683,1694.93
33.734,1711.35
33.785,1773.6
33.836,1752.31
33.887,1692.58
33.938,1683.55
33.989,1761.6
34.04,1784.33
34.091,1765.19
34.142,1800.62
34.193,1850.45
34.244,1924.58
34.295,1918.64
34.346,2029.93
34.397,2174.22
34.448,2166.52
34.499,2373.27
34.55,2526.05
34.601,2729.78
34.652,3095.94
34.703,3565.05
34.754,4159.77
34.805,4950.99
34.856,5371.796
34.907,5583.44
34.958,5118.12
35.009,4566.83
35.06,4070.51
35.111,3653.05
35.162,3448.05
35.213,3377.42
35.264,3299.26
35.315,3297.51
35.366,3430.49
35.417,3635.7
35.468,3854.88
35.519,4217.2
35.57,4684.37
35.621,5300.3
35.672,6146.76
35.723,7040.91
35.774,8256.14
35.825,9504.25
35.876,9946.22
35.927,10127.3
35.978,9204.95
36.029,8422.666
36.08,7875.4
36.131,7477.95
36.182,6708.25
36.233,5915.15
36.284,5114.81
36.335,4419.62
36.386,4105.07
36.437,3527.36
36.488,3321.82
36.539,2994.72
36.59,2821.93
36.641,2634.19
36.692,2607.43
36.743,2491.61
36.794,2355.69
36.845,2244.686
36.896,2169.46
36.947,2010.25
36.998,2016.288
37.049,1953.97
37.1,1932.93
37.151,1888.76
37.202,1813.78
37.253,1844.32
37.304,1799.16
37.355,1753.29
37.406,1758.52
37.457,1747.07
37.508,1725.93
37.559,1682.45
37.61,1721.01
37.661,1714.97
37.712,1685.78
37.763,1736.87
37.814,1667.17
37.865,1678
37.916,1675.751
37.967,1677.09
38.018,1639.91
38.069,1610.19
38.12,1591.75
38.171,1652.38
38.222,1646.76
38.273,1611.74
38.324,1607.4
38.375,1596.66
38.426,1619.401
38.477,1576.3
38.528,1704.56
38.579,1580.25
38.63,1625.44
38.681,1666.85
38.732,1598.59
38.783,1669.8
38.834,1712.32
38.885,1637.68
38.936,1761.87
38.987,1721.13
39.038,1783.92
39.089,1840.73
39.14,1943.27
39.191,2016.83
39.242,2230.85
39.293,2462.89
39.344,2578
39.395,2536.08
39.446,2445.71
39.497,2253.73
39.548,2090.35
39.599,2000
39.65,1977.51
39.701,1836.13
39.752,1852.45
39.803,1837.58
39.854,1821.059
39.905,1719.26
39.956,1669.47
40.007,1733.92
40.058,1696.77
40.109,1675.04
40.16,1645.83
40.211,1673.17
40.262,1631.33
40.313,1662.44
40.364,1662.59
40.415,1623.67
40.466,1647.35
40.517,1664.59
40.568,1681.484
40.619,1689.18
40.67,1665.779
40.721,1726.77
40.772,1718.56
40.823,1730.39
40.874,1738.57
40.925,1745.59
40.976,1696.42
41.027,1764.49
41.078,1785.814
41.129,1875.33
41.18,1891.83
41.231,1899.421
41.282,2008.99
41.333,2056.82
41.384,2157
41.435,2328.26
41.486,2427.06
41.537,2605.88
41.588,2828.42
41.639,3087.85
41.69,3407.42
41.741,3611.46
41.792,3696.14
41.843,4004.51
41.894,4305.09
41.945,4689.33
41.996,5311.86
42.047,5289.93
42.098,4785.05
42.149,4311.05
42.2,3675.1
42.251,3264.48
42.302,3030.34
42.353,2922.88
42.404,3029.1
42.455,3020.47
42.506,3321.95
42.557,3733.88
42.608,4341.85
42.659,5317.409
42.71,5953.794
42.761,5512.71
42.812,5062.98
42.863,4342.275
42.914,3732.92
42.965,3225.65
43.016,2858.26
43.067,2646.607
43.118,2340.334
43.169,2282
43.22,2218.93
43.271,2074.419
43.322,1989.87
43.373,1917.79
43.424,1850.13
43.475,1732.14
43.526,1786.01
43.577,1772.66
43.628,1700.597
43.679,1695.8
43.73,1653.06
43.781,1636.28
43.832,1568.85
43.883,1642.61
43.934,1621.62
43.985,1617.67
44.036,1574.43
44.087,1574.73
44.138,1501.86
44.189,1500.91
44.24,1556.17
44.291,1514.81
44.342,1585.51
44.393,1496.73
44.444,1491.763
44.495,1570.28
44.546,1528.43
44.597,1498.93
44.648,1530.28
44.699,1504.1
44.75,1543.23
44.801,1468.613
44.852,1476.12
44.903,1509.26
44.954,1527.01
45.005,1500.94
45.056,1497.47
45.107,1439.478
45.158,1432.69
45.209,1523.18
45.26,1487.55
45.311,1445
45.362,1465.46
45.413,1472.86
45.464,1439.2
45.515,1537.08
45.566,1472.81
45.617,1457.367
45.668,1474.35
45.719,1421.97
45.77,1465.66
45.821,1485.188
45.872,1475.49
45.923,1438.01
45.974,1472.86
46.025,1510.38
46.076,1476.23
46.127,1437.36
46.178,1458.84
46.229,1434.92
46.28,1456.03
46.331,1418.73
46.382,1455.69
46.433,1450.12
46.484,1493.66
46.535,1445.51
46.586,1450.539
46.637,1449.85
46.688,1442.95
46.739,1417.87
46.79,1466.9
46.841,1415.652
46.892,1444.927
46.943,1439.29
46.994,1460.98
47.045,1430.68
47.096,1426.247
47.147,1442.18
47.198,1399.44
47.249,1512.68
47.3,1413.14
47.351,1460.71
47.402,1432.42
47.453,1399.27
47.504,1473.89
47.555,1424.04
47.606,1444.98
47.657,1450.12
47.708,1379.21
47.759,1465.63
47.81,1545.57
47.861,1472.879
47.912,1517.91
47.963,1486.58
48.014,1491.49
48.065,1471.49
48.116,1471.34
48.167,1514.16
48.218,1617.32
48.269,1529.88
48.32,1564.51
48.371,1527.46
48.422,1479.79
48.473,1453.3
48.524,1499.23
48.575,1446.84
48.626,1491.24
48.677,1469.94
48.728,1463.74
48.779,1477.729
48.83,1475.57
48.881,1493.933
48.932,1467.967
48.983,1449.3
49.034,1520.08
49.085,1590.83
49.136,1603.67
49.187,1630.56
49.238,1584.7
49.289,1647.14
49.34,1576.807
49.391,1470.58
49.442,1494.64
49.493,1484.85
49.544,1443.4
49.595,1479.46
49.646,1487.34
49.697,1481
49.748,1487.75
49.799,1453.04
49.85,1517.51
49.901,1528.44
49.952,1517.18
50.003,1496.419
50.054,1500.75
50.105,1505.96
50.156,1575.2
50.207,1548.09
50.258,1501.13
50.309,1517.783
50.36,1535.86
50.411,1473.27
50.462,1503.03
50.513,1501.17
50.564,1523.61
50.615,1500.66
50.666,1506.05
50.717,1525.14
50.768,1460.509
50.819,1523.61
50.87,1481.64
50.921,1493.29
50.972,1412.84
51.023,1487.23
51.074,1447.17
51.125,1503.56
51.176,1460.49
51.227,1538.61
51.278,1503.11
51.329,1453.04
51.38,1482.8
51.431,1507.73
51.482,1479.79
51.533,1432.47
51.584,1465.72
51.635,1508.17
51.686,1455
51.737,1426.92
51.788,1427.05
51.839,1479.772
51.89,1377.36
51.941,1514.5
51.992,1565.51
52.043,1455.14
52.094,1486.16
52.145,1495.81
52.196,1501.81
52.247,1453.686
52.298,1442.8
52.349,1497.52
52.4,1448.98
52.451,1512.02
52.502,1494.081
52.553,1527.749
52.604,1510.35
52.655,1510.44
52.706,1545.49
52.757,1477.6
52.808,1523.68
52.859,1516.08
52.91,1562.92
52.961,1542
53.012,1547.98
53.063,1518.46
53.114,1521.8
53.165,1511.19
53.216,1502.22
53.267,1468.08
53.318,1525.08
53.369,1450.852
53.42,1563.22
53.471,1562.58
53.522,1572.86
53.573,1608.22
53.624,1605.31
53.675,1617.102
53.726,1677.71
53.777,1694.503
53.828,1753.018
53.879,1776.78
53.93,1836.95
53.981,1876.389
54.032,1781.621
54.083,1739.32
54.134,1683.83
54.185,1731.04
54.236,1636.29
54.287,1649.075
54.338,1679.51
54.389,1695.55
54.44,1613.94
54.491,1609.99
54.542,1621.7
54.593,1591.99
54.644,1619.66
54.695,1583.97
54.746,1590.38
54.797,1559.65
54.848,1616.02
54.899,1577.8
54.95,1550.33
55.001,1590.54
55.052,1632.82
55.103,1631.251
55.154,1699.32
55.205,1708.54
55.256,1677.25
55.307,1734.05
55.358,1761.02
55.409,1853.34
55.46,1882.84
55.511,1915.81
55.562,1847.42
55.613,1854.14
55.664,1788.39
55.715,1814.325
55.766,1794.24
55.817,1822.22
55.868,1868.47
55.919,1857.48
55.97,1907.72
56.021,1941.456
56.072,1922.7
56.123,1979.94
56.174,2132.91
56.225,2126.42
56.276,2331.3
56.327,2454.92
56.378,2724.85
56.429,2807.01
56.48,2938.49
56.531,3108.55
56.582,3132.44
56.633,2991.19
56.684,2961.77
56.735,2722.63
56.786,2518.06
56.837,2373.81
56.888,2235.46
56.939,2091.19
56.99,2099.95
57.041,2059.09
57.092,2020.38
57.143,2044.01
57.194,2085.313
57.245,1992.26
57.296,2122.17
57.347,1959.39
57.398,1953.66
57.449,1933.14
57.5,1942.904
57.551,1750.31
57.602,1836.95
57.653,1749.84
57.704,1762.47
57.755,1731.51
57.806,1716.325
57.857,1710.52
57.908,1686.3
57.959,1598.79
58.01,1647.99
58.061,1664.87
58.112,1619.9
58.163,1655.51
58.214,1613.36
58.265,1690.81
58.316,1694.23
58.367,1674.51
58.418,1685.45
58.469,1658.31
58.52,1643.04
58.571,1774.73
58.622,1732.47
58.673,1790.01
58.724,1823.67
58.775,1881.38
58.826,1909.58
58.877,2021.25
58.928,2052.5
58.979,2092.82
59.03,2039.43
59.081,1956.45
59.132,1950.06
59.183,1916.29
59.234,1886.21
59.285,1852.75
59.336,1851.49
59.387,1769.74
59.438,1913.17
59.489,1807.49
59.54,1759.36
59.591,1888.87
59.642,1931.079
59.693,1946.41
59.744,1956.02
59.795,2057.97
59.846,2048.93
59.897,2023.29
59.948,2046.28
59.999,2055.78
60.05,2018.82
60.101,2074.36
60.152,1997.89
60.203,1951.43
60.254,1970.21
60.305,1959.88
60.356,1933.85
60.407,1931.79
60.458,1904.64
60.509,1914.58
60.56,1933.71
60.611,1996.6
60.662,1952.4
60.713,1965.05
60.764,1931.1
60.815,1866.92
60.866,1952.55
60.917,1848.95
60.968,1774.57
61.019,1797.22
61.07,1722.71
61.121,1747.74
61.172,1698.21
61.223,1653.92
61.274,1704.065
61.325,1619.97
61.376,1585.9
61.427,1580.24
61.478,1539.35
61.529,1531.37
61.58,1579.8
61.631,1575.96
61.682,1559.7
61.733,1567.99
61.784,1565.66
61.835,1561.47
61.886,1559.937
61.937,1549.48
61.988,1514.02
62.039,1497.82
62.09,1521.05
62.141,1456.12
62.192,1550.11
62.243,1541.33
62.294,1532.84
62.345,1493.655
62.396,1527.63
62.447,1445.28
62.498,1516.035
62.549,1465.75
62.6,1513.5
62.651,1470.542
62.702,1561.5
62.753,1500.21
62.804,1497.25
62.855,1502.83
62.906,1507.97
62.957,1588.382
63.008,1499.34
63.059,1562.74
63.11,1511.07
63.161,1559.8
63.212,1523.497
63.263,1600.69
63.314,1526.244
63.365,1461.16
63.416,1494.35
63.467,1467.71
63.518,1502.41
63.569,1459.95
63.62,1520.26
63.671,1479.21
63.722,1489.974
63.773,1487.32
63.824,1466.91
63.875,1492.26
63.926,1500.82
63.977,1532.2
64.028,1536.78
64.079,1522.42
64.13,1529.3
64.181,1460.08
64.232,1506.42
64.283,1452.25
64.334,1512.73
64.385,1537.66
64.436,1498.66
64.487,1449.79
64.538,1513.11
64.589,1595.06
64.64,1561.8
64.691,1519.57
64.742,1512.03
64.793,1592.55
64.844,1596.16
64.895,1609.36
64.946,1545.45
64.997,1624.45
65.048,1620.4
65.099,1659.1
65.15,1673.96
65.201,1659.41
65.252,1689.34
65.303,1749.34
65.354,1787.95
65.405,1882.32
65.456,1873.13
65.507,1840.85
65.558,1788.7
65.609,1764.952
65.66,1730.81
65.711,1756.63
65.762,1640.7
65.813,1657.24
65.864,1634.56
65.915,1580.25
65.966,1645.22
66.017,1590.27
66.068,1668.02
66.119,1654.54
66.17,1598.02
66.221,1571.36
66.272,1616.49
66.323,1602.62
66.374,1599.61
66.425,1592.5
66.476,1641.54
66.527,1575.128
66.578,1614.33
66.629,1623.65
66.68,1592.44
66.731,1571.51
66.782,1553.86
66.833,1503.66
66.884,1529.22
66.935,1553.404
66.986,1487.67
67.037,1448.97
67.088,1536.38
67.139,1556.13
67.19,1436.377
67.241,1545.65
67.292,1557.53
67.343,1484.148
67.394,1533.93
67.445,1498.91
67.496,1517.79
67.547,1555.79
67.598,1535.36
67.649,1560.22
67.7,1496.91
67.751,1541.37
67.802,1536.98
67.853,1561
67.904,1545.59
67.955,1583.4
68.006,1506.55
68.057,1527.046
68.108,1560.85
68.159,1540.84
68.21,1581.28
68.261,1510.71
68.312,1579.69
68.363,1546.52
68.414,1583.59
68.465,1593.238
68.516,1647.51
68.567,1646.63
68.618,1638.94
68.669,1621.6
68.72,1673.11
68.771,1619.03
68.822,1605.8
68.873,1654.43
68.924,1612.6
68.975,1734.57
69.026,1732.9
69.077,1775.09
69.128,1760.9
69.179,1818.27
69.23,1755.32
69.281,1807.46
69.332,1822.67
69.383,1928.06
69.434,1966.28
69.485,2058.86
69.536,2120.83
69.587,2143.51
69.638,2201.95
69.689,2195.08
69.74,2259.36
69.791,2176.36
69.842,2109.87
69.893,2101.18
69.944,2018.68
69.995,2031.26
70.046,2044.063
70.097,2003.1
70.148,2023.92
70.199,2044.273
70.25,1957.7
70.301,1904.81
70.352,1921.51
70.403,1903
70.454,1920.56
70.505,1980.48
70.556,1937.42
70.607,1952.18
70.658,1962.37
70.709,1963.87
70.76,1935.141
70.811,1926.17
70.862,1960.81
70.913,1905.34
70.964,1866.12
71.015,1908.48
71.066,1993.95
71.117,1890.743
71.168,2008.196
71.219,1941.01
71.27,1914.8
71.321,1923.49
71.372,1931.97
71.423,1881.438
71.474,1904.23
71.525,1864.684
71.576,1849.01
71.627,1975.06
71.678,1895.24
71.729,1970.48
71.78,1975.52
71.831,1945.44
71.882,1926.21
71.933,2081.56
71.984,1959.06
72.035,2130.27
72.086,1998.19
72.137,2043.59
72.188,2049.48
72.239,2073.46
72.29,2083.11
72.341,2078.99
72.392,2065.2
72.443,2023.71
72.494,2018.266
72.545,2084.729
72.596,2067.36
72.647,2111.68
72.698,2096.12
72.749,2117.44
72.8,2132.33
72.851,2073.72
72.902,2064.41
72.953,2059.989
73.004,2031.91
73.055,1962.69
73.106,1950.28
73.157,1825.82
73.208,1822.24
73.259,1847.24
73.31,1914.338
73.361,1794.21
73.412,1813.341
73.463,1801.82
73.514,1838.04
73.565,1836.34
73.616,1928.57
73.667,1833.86
73.718,1812.46
73.769,1761.46
73.82,1760.38
73.871,1745.22
73.922,1733.91
73.973,1696.16
74.024,1749.19
74.075,1641.47
74.126,1762.03
74.177,1745.91
74.228,1693.2
74.279,1707.44
74.33,1677.34
74.381,1608.153
74.432,1597.15
74.483,1647.43
74.534,1589.704
74.585,1616.58
74.636,1628.905
74.687,1615.32
74.738,1567.08
74.789,1615.59
74.84,1616.16
74.891,1588.59
74.942,1572
74.993,1619.05
75.044,1547.68
75.095,1606.63
75.146,1574.44
75.197,1560.99
75.248,1635.365
75.299,1569.08
75.35,1634.49
75.401,1602.816
75.452,1593.79
75.503,1639.84
75.554,1588.62
75.605,1632.85
75.656,1644.59
75.707,1630.35
75.758,1600
75.809,1691.4
75.86,1660.58
75.911,1684.29
75.962,1608.09
76.013,1658.48
76.064,1671.38
76.115,1684.31
76.166,1602.05
76.217,1676.01
76.268,1701.26
76.319,1705.239
76.37,1617.79
76.421,1635.85
76.472,1658.702
76.523,1628.97
76.574,1693.52
76.625,1658.39
76.676,1653.49
76.727,1667.08
76.778,1663.51
76.829,1706.08
76.88,1743.39
76.931,1787.32
76.982,1817.502
77.033,1751.57
77.084,1826.2
77.135,1948.23
77.186,1940.4
77.237,1998.39
77.288,1946.15
77.339,1996.69
77.39,1894.84
77.441,1849.26
77.492,1857.3
77.543,1868.94
77.594,1812.73
77.645,1832.18
77.696,1869.44
77.747,1790.61
77.798,1795.5
77.849,1795.44
77.9,1741.42
77.951,1774.713
78.002,1864.35
78.053,1838.06
78.104,1855.04
78.155,1813.39
78.206,1763.25
78.257,1779.92
78.308,1818.88
78.359,1800.81
78.41,1812.27
78.461,1782.14
78.512,1759.77
78.563,1744.16
78.614,1724.1
78.665,1721.92
78.716,1729.98
78.767,1753.1
78.818,1716.1
78.869,1731.6
78.92,1705.05
78.971,1623.43
79.022,1646.9
79.073,1575.901
79.124,1614.736
79.175,1644.11
79.226,1574.291
79.277,1625.89
79.328,1593.553
79.379,1593.43
79.43,1641.25
79.481,1605.28
79.532,1585.11
79.583,1572.88
79.634,1613.3
79.685,1635.78
79.736,1584.46
79.787,1617.43
79.838,1568.319
79.889,1571.45
79.94,1588.839
79.974,1721.73