File: data/xrd_icdd_PDF/00-062-0163 (PD3).csv
10.0188,2875
10.0788,2884
10.1388,2755
10.1988,2751
10.2588,2809
10.3188,2714
10.3788,2805
10.4388,2798
10.4988,2667
10.5588,2744
10.6188,2749
10.6788,2642
10.7388,2791
10.7988,2717
10.8588,2721
10.9188,2598
10.9788,2624
11.0388,2569
11.0988,2638
11.1588,2639
11.2188,2748
11.2788,2546
11.3388,2649
11.3988,2582
11.4588,2637
11.5188,2540
11.5788,2620
11.6388,2630
11.6988,2689
11.7588,2372
11.8188,2451
11.8788,2424
11.9388,2444
11.9988,2443
12.0588,2505
12.1188,2434
12.1788,2447
12.2388,2407
12.2988,2474
12.3588,2509
12.4188,2538
12.4788,2481
12.5388,2439
12.5988,2362
12.6588,2516
12.7188,2538
12.7788,2484
12.8388,2423
12.8988,2446
12.9588,2608
13.0188,2689
13.0788,2685
13.1388,2491
13.1988,2348
13.2588,2408
13.3188,2295
13.3788,2427
13.4388,2311
13.4988,2321
13.5588,2370
13.6188,2493
13.6788,2416
13.7388,2381
13.7988,2396
13.8588,2293
13.9188,2457
13.9788,2513
14.0388,2506
14.0988,2323
14.1588,2373
14.2188,2359
14.2788,2431
14.3388,2335
14.3988,2423
14.4588,2476
14.5188,2405
14.5788,2350
14.6388,2455
14.6988,2532
14.7588,2669
14.8188,2782
14.8788,3096
14.9388,3691
14.9988,3180
15.0588,2572
15.1188,2481
15.1788,2394
15.2388,2522
15.2988,2512
15.3588,2491
15.4188,2524
15.4788,2453
15.5388,2470
15.5988,2415
15.6588,2400
15.7188,2468
15.7788,2465
15.8388,2478
15.8988,2504
15.9588,2515
16.0188,2453
16.0788,2539
16.1388,2617
16.1988,2465
16.2588,2413
16.3188,2447
16.3788,2606
16.4388,2590
16.4988,2548
16.5588,2469
16.6188,2541
16.6788,2702
16.7388,2532
16.7988,2539
16.8588,2684
16.9188,2559
16.9788,2540
17.0388,2758
17.0988,2891
17.1588,3157
17.2188,3294
17.2788,3089
17.3388,2728
17.3988,2751
17.4588,2628
17.5188,2605
17.5788,2730
17.6388,2645
17.6988,2563
17.7588,2587
17.8188,2660
17.8788,2561
17.9388,2591
17.9988,2668
18.0588,2631
18.1188,2685
18.1788,2760
18.2388,2875
18.2988,2702
18.3588,2718
18.4188,2703
18.4788,2843
18.5388,2722
18.5988,2842
18.6588,2769
18.7188,2760
18.7788,2763
18.8388,2775
18.8988,2731
18.9588,2897
19.0188,2830
19.0788,2823
19.1388,2858
19.1988,2842
19.2588,2898
19.3188,2868
19.3788,2728
19.4388,2857
19.4988,2798
19.5588,2894
19.6188,3113
19.6788,2977
19.7388,3203
19.7988,3628
19.8588,4246
19.9188,5833
19.9788,8640
20.0388,8566
20.0988,4765
20.1588,3411
20.2188,3144
20.2788,3011
20.3388,2832
20.3988,3017
20.4588,2994
20.5188,2957
20.5788,3011
20.6388,2795
20.6988,2857
20.7588,2853
20.8188,3012
20.8788,3001
20.9388,2944
20.9988,2948
21.0588,2885
21.1188,2991
21.1788,3027
21.2388,3113
21.2988,2886
21.3588,2901
21.4188,2970
21.4788,3023
21.5388,2971
21.5988,3087
21.6588,3045
21.7188,3119
21.7788,3271
21.8388,3226
21.8988,3304
21.9588,3341
22.0188,3492
22.0788,3670
22.1388,4136
22.1988,4960
22.2588,5745
22.3188,6370
22.3788,5502
22.4388,4425
22.4988,3689
22.5588,3354
22.6188,3440
22.6788,3736
22.7388,4222
22.7988,5774
22.8588,8658
22.9188,13265
22.9788,11759
23.0388,6463
23.0988,4014
23.1588,3409
23.2188,3152
23.2788,3067
23.3388,2948
23.3988,2887
23.4588,2813
23.5188,2768
23.5788,2762
23.6388,2875
23.6988,2695
23.7588,2714
23.8188,2765
23.8788,2682
23.9388,2714
23.9988,2761
24.0588,2699
24.1188,2576
24.1788,2673
24.2388,2662
24.2988,2659
24.3588,2711
24.4188,2659
24.4788,2758
24.5388,2799
24.5988,2658
24.6588,2696
24.7188,2484
24.7788,2525
24.8388,2658
24.8988,2623
24.9588,2572
25.0188,2486
25.0788,2672
25.1388,2524
25.1988,2637
25.2588,2613
25.3188,2675
25.3788,2546
25.4388,2524
25.4988,2631
25.5588,2779
25.6188,2769
25.6788,2999
25.7388,3780
25.7988,4728
25.8588,6360
25.9188,8192
25.9788,9683
26.0388,12557
26.0988,21440
26.1588,46887
26.2188,52317
26.2788,32836
26.3388,15815
26.3988,11921
26.4588,8962
26.5188,6076
26.5788,4296
26.6388,3714
26.6988,3423
26.7588,3349
26.8188,3052
26.8788,2722
26.9388,2618
26.9988,2426
27.0588,2343
27.1188,2326
27.1788,2244
27.2388,2294
27.2988,2296
27.3588,2310
27.4188,2315
27.4788,2466
27.5388,2822
27.5988,3309
27.6588,4621
27.7188,7490
27.7788,9235
27.8388,7109
27.8988,4482
27.9588,3115
28.0188,2639
28.0788,2442
28.1388,2560
28.1988,2616
28.2588,2777
28.3188,3556
28.3788,5007
28.4388,8676
28.4988,12323
28.5588,11087
28.6188,8355
28.6788,7847
28.7388,8046
28.7988,6118
28.8588,4146
28.9188,3199
28.9788,2682
29.0388,2492
29.0988,2274
29.1588,2210
29.2188,2185
29.2788,2336
29.3388,2399
29.3988,2533
29.4588,2837
29.5188,3358
29.5788,4096
29.6388,5088
29.6988,6447
29.7588,6336
29.8188,6018
29.8788,6788
29.9388,9961
29.9988,15318
30.0588,26448
30.1188,36534
30.1788,31734
30.2388,18886
30.2988,9368
30.3588,5816
30.4188,3981
30.4788,3126
30.5388,2761
30.5988,2503
30.6588,2216
30.7188,2044
30.7788,2019
30.8388,1950
30.8988,1999
30.9588,1755
31.0188,1798
31.0788,1776
31.1388,1794
31.1988,1817
31.2588,1811
31.3188,1800
31.3788,1918
31.4388,1784
31.4988,1708
31.5588,1799
31.6188,1747
31.6788,1751
31.7388,1780
31.7988,1871
31.8588,1826
31.9188,2047
31.9788,2274
32.0388,2620
32.0988,3472
32.1588,5677
32.2188,10115
32.2788,10903
32.3388,7885
32.3988,4644
32.4588,2954
32.5188,2323
32.5788,1977
32.6388,1850
32.6988,1829
32.7588,1800
32.8188,1680
32.8788,1648
32.9388,1741
32.9988,1697
33.0588,1657
33.1188,1781
33.1788,1969
33.2388,2056
33.2988,2582
33.3588,3315
33.4188,4752
33.4788,4344
33.5388,3372
33.5988,2594
33.6588,2278
33.7188,2615
33.7788,2986
33.8388,3072
33.8988,2592
33.9588,2158
34.0188,1834
34.0788,1807
34.1388,1633
34.1988,1814
34.2588,1781
34.3188,1877
34.3788,2244
34.4388,2543
34.4988,3453
34.5588,5605
34.6188,8681
34.6788,9919
34.7388,11210
34.7988,13913
34.8588,12694
34.9188,9372
34.9788,5859
35.0388,4035
35.0988,3510
35.1588,3605
35.2188,4042
35.2788,3773
35.3388,3046
35.3988,2397
35.4588,2104
35.5188,1793
35.5788,1726
35.6388,1745
35.6988,1936
35.7588,2161
35.8188,3077
35.8788,4315
35.9388,4271
35.9988,3472
36.0588,2817
36.1188,2624
36.1788,2554
36.2388,3045
36.2988,3105
36.3588,2781
36.4188,2325
36.4788,1826
36.5388,1556
36.5988,1502
36.6588,1432
36.7188,1387
36.7788,1268
36.8388,1257
36.8988,1251
36.9588,1248
37.0188,1257
37.0788,1291
37.1388,1334
37.1988,1349
37.2588,1414
37.3188,1439
37.3788,1534
37.4388,1818
37.4988,2252
37.5588,3491
37.6188,4823
37.6788,4791
37.7388,3880
37.7988,2946
37.8588,2429
37.9188,2035
37.9788,1616
38.0388,1465
38.0988,1328
38.1588,1281
38.2188,1296
38.2788,1250
38.3388,1246
38.3988,1244
38.4588,1213
38.5188,1452
38.5788,1623
38.6388,1907
38.6988,2585
38.7588,3987
38.8188,5562
38.8788,6292
38.9388,5326
38.9988,4351
39.0588,3622
39.1188,4256
39.1788,4889
39.2388,5610
39.2988,6782
39.3588,6677
39.4188,6527
39.4788,6288
39.5388,5997
39.5988,6373
39.6588,9330
39.7188,12563
39.7788,9976
39.8388,7534
39.8988,4016
39.9588,2340
40.0188,1773
40.0788,1556
40.1388,1376
40.1988,1224
40.2588,1181
40.3188,1227
40.3788,1193
40.4388,1326
40.4988,1356
40.5588,1353
40.6188,1361
40.6788,1273
40.7388,1163
40.7988,1116
40.8588,1230
40.9188,1220
40.9788,1301
41.0388,1255
41.0988,1218
41.1588,1216
41.2188,1076
41.2788,1174
41.3388,1053
41.3988,1218
41.4588,1218
41.5188,1389
41.5788,1679
41.6388,2353
41.6988,2856
41.7588,2752
41.8188,2414
41.8788,1756
41.9388,1581
41.9988,1452
42.0588,1347
42.1188,1558
42.1788,2024
42.2388,2407
42.2988,2172
42.3588,1916
42.4188,1581
42.4788,1391
42.5388,1157
42.5988,1215
42.6588,1098
42.7188,1155
42.7788,1154
42.8388,1164
42.8988,1218
42.9588,1200
43.0188,1234
43.0788,1519
43.1388,1735
43.1988,1754
43.2588,1955
43.3188,1908
43.3788,1844
43.4388,1745
43.4988,1657
43.5588,1830
43.6188,2404
43.6788,2636
43.7388,2492
43.7988,2225
43.8588,1670
43.9188,1592
43.9788,1490
44.0388,1570
44.0988,1864
44.1588,2296
44.2188,2341
44.2788,2091
44.3388,1810
44.3988,1491
44.4588,1237
44.5188,1272
44.5788,1178
44.6388,1138
44.6988,1214
44.7588,1099
44.8188,1127
44.8788,1067
44.9388,1259
44.9988,1402
45.0588,1512
45.1188,1785
45.1788,2575
45.2388,3453
45.2988,3313
45.3588,3446
45.4188,3042
45.4788,3210
45.5388,3081
45.5988,3609
45.6588,4681
45.7188,4222
45.7788,3957
45.8388,3454
45.8988,3047
45.9588,2893
46.0188,2646
46.0788,2383
46.1388,2475
46.1988,2606
46.2588,2723
46.3188,2648
46.3788,2406
46.4388,2105
46.4988,1888
46.5588,1940
46.6188,2089
46.6788,2576
46.7388,3097
46.7988,3417
46.8588,3172
46.9188,2687
46.9788,2354
47.0388,2033
47.0988,1810
47.1588,1640
47.2188,1408
47.2788,1503
47.3388,1412
47.3988,1480
47.4588,2083
47.5188,2725
47.5788,2529
47.6388,2451
47.6988,2085
47.7588,1569
47.8188,1315
47.8788,1083
47.9388,1067
47.9988,1096
48.0588,983
48.1188,1024
48.1788,1040
48.2388,1007
48.2988,1017
48.3588,963
48.4188,958
48.4788,1057
48.5388,1088
48.5988,1042
48.6588,1072
48.7188,1109
48.7788,1223
48.8388,1323
48.8988,1552
48.9588,2295
49.0188,3139
49.0788,2869
49.1388,2870
49.1988,2539
49.2588,2410
49.3188,2205
49.3788,2427
49.4388,2507
49.4988,3391
49.5588,4392
49.6188,5752
49.6788,7631
49.7388,7429
49.7988,6094
49.8588,5076
49.9188,3292
49.9788,2457
50.0388,2198
50.0988,2252
50.1588,2181
50.2188,1944
50.2788,1891
50.3388,1624
50.3988,1500
50.4588,1703
50.5188,1925
50.5788,1856
50.6388,1659
50.6988,1456
50.7588,1420
50.8188,1330
50.8788,1301
50.9388,1513
50.9988,1593
51.0588,1675
51.1188,1819
51.1788,2004
51.2388,1677
51.2988,1581
51.3588,1383
51.4188,1348
51.4788,1499
51.5388,1624
51.5988,1519
51.6588,1533
51.7188,1420
51.7788,1241
51.8388,1153
51.8988,1084
51.9588,1138
52.0188,1257
52.0788,1326
52.1388,1240
52.1988,1384
52.2588,1125
52.3188,1248
52.3788,1160
52.4388,1115
52.4988,1179
52.5588,1201
52.6188,1365
52.6788,1695
52.7388,2297
52.7988,2473
52.8588,2586
52.9188,2716
52.9788,2949
53.0388,3420
53.0988,3740
53.1588,4153
53.2188,4559
53.2788,4503
53.3388,4620
53.3988,4200
53.4588,3769
53.5188,3205
53.5788,2630
53.6388,2303
53.6988,2469
53.7588,3118
53.8188,4230
53.8788,3758
53.9388,3307
53.9988,3107
54.0588,2558
54.1188,2397
54.1788,2211
54.2388,2215
54.2988,2374
54.3588,2342
54.4188,2057
54.4788,1909
54.5388,1704
54.5988,1375
54.6588,1253
54.7188,1240
54.7788,1238
54.8388,1242
54.8988,1210
54.9588,1345
55.0188,1687
55.0788,2194
55.1388,2146
55.1988,1954
55.2588,1862
55.3188,1513
55.3788,1273
55.4388,1096
55.4988,1009
55.5588,1020
55.6188,1026
55.6788,998
55.7388,966
55.7988,989
55.8588,984
55.9188,1004
55.9788,1161
56.0388,1205
56.0988,1108
56.1588,1136
56.2188,1141
56.2788,1177
56.3388,1153
56.3988,1143
56.4588,1238
56.5188,1198
56.5788,1379
56.6388,1473
56.6988,1783
56.7588,2223
56.8188,3199
56.8788,3365
56.9388,2935
56.9988,2772
57.0588,2331
57.1188,1845
57.1788,1577
57.2388,1413
57.2988,1468
57.3588,1297
57.4188,1311
57.4788,1567
57.5388,1708
57.5988,1862
57.6588,1620
57.7188,1493
57.7788,1400
57.8388,1183
57.8988,1142
57.9588,1087
58.0188,1085
58.0788,1027
58.1388,1006
58.1988,1036
58.2588,1044
58.3188,943
58.3788,969
58.4388,1082
58.4988,1054
58.5588,1165
58.6188,1294
58.6788,1262
58.7388,1408
58.7988,1468
58.8588,1800
58.9188,2243
58.9788,2737
59.0388,2550
59.0988,2481
59.1588,2578
59.2188,2339
59.2788,2176
59.3388,2398
59.3988,2931
59.4588,3610
59.5188,3834
59.5788,4201
59.6388,3841
59.6988,3500
59.7588,3501
59.8188,3255
59.8788,2707
59.9388,2659
59.9988,2719
60.0588,2743
60.1188,2920
60.1788,2655
60.2388,2643
60.2988,2273
60.3588,2047
60.4188,1823
60.4788,1681
60.5388,1592
60.5988,1476
60.6588,1383
60.7188,1445
60.7788,1438
60.8388,1457
60.8988,1571
60.9588,1607
61.0188,2010
61.0788,2009
61.1388,2010
61.1988,1958
61.2588,1918
61.3188,1875
61.3788,1609
61.4388,1581
61.4988,1689
61.5588,1781
61.6188,2174
61.6788,2309
61.7388,2010
61.7988,2083
61.8588,2061
61.9188,2072
61.9788,1828
62.0388,1782
62.0988,1664
62.1588,1644
62.2188,1786
62.2788,1943
62.3388,1691
62.3988,1692
62.4588,1765
62.5188,1726
62.5788,1981
62.6388,1955
62.6988,1924
62.7588,2167
62.8188,2317
62.8788,2540
62.9388,2192
62.9988,2092
63.0588,2024
63.1188,1815
63.1788,1581
63.2388,1479
63.2988,1437
63.3588,1353
63.4188,1374
63.4788,1470
63.5388,1632
63.5988,1561
63.6588,1544
63.7188,1480
63.7788,1433
63.8388,1419
63.8988,1600
63.9588,1638
64.0188,1481
64.0788,1465
64.1388,1381
64.1988,1204
64.2588,1109
64.3188,965
64.3788,926
64.4388,922
64.4988,1016
64.5588,978
64.6188,1002
64.6788,966
64.7388,968
64.7988,1038
64.8588,1013
64.9188,982
64.9788,957
65.0388,1033
65.0988,1068
65.1588,1048
65.2188,1179
65.2788,1089
65.3388,1368
65.3988,1572
65.4588,1592
65.5188,1571
65.5788,1674
65.6388,1593
65.6988,1736
65.7588,1603
65.8188,1467
65.8788,1359
65.9388,1293
65.9988,1071
66.0588,1145
66.1188,1127
66.1788,1085
66.2388,1012
66.2988,1025
66.3588,962
66.4188,1008
66.4788,1054
66.5388,1040
66.5988,1008
66.6588,913
66.7188,970
66.7788,949
66.8388,1007
66.8988,793
66.9588,900
67.0188,802
67.0788,759
67.1388,897
67.1988,866
67.2588,854
67.3188,937
67.3788,998
67.4388,1095
67.4988,1018
67.5588,1068
67.6188,1045
67.6788,964
67.7388,1063
67.7988,999
67.8588,1043
67.9188,1129
67.9788,1147
68.0388,1208
68.0988,1342
68.1588,1643
68.2188,2036
68.2788,1958
68.3388,1721
68.3988,1769
68.4588,1609
68.5188,1406
68.5788,1287
68.6388,1310
68.6988,1255
68.7588,1448
68.8188,1635
68.8788,2868
68.9388,3636
68.9988,3223
69.0588,3411
69.1188,3717
69.1788,3252
69.2388,2584
69.2988,2390
69.3588,2106
69.4188,1766
69.4788,1695
69.5388,1802
69.5988,1920
69.6588,1942
69.7188,1908
69.7788,1997
69.8388,1985
69.8988,1777
69.9588,1595
70.0188,1642
70.0788,1582
70.1388,1451
70.1988,1534
70.2588,1590
70.3188,1679
70.3788,1730
70.4388,1790
70.4988,1768
70.5588,1799
70.6188,2067
70.6788,2296
70.7388,2077
70.7988,2166
70.8588,2129
70.9188,2146
70.9788,1892
71.0388,1890
71.0988,1815
71.1588,1857
71.2188,1855
71.2788,2140
71.3388,2460
71.3988,2060
71.4588,1922
71.5188,1737
71.5788,1683
71.6388,1362
71.6988,1253
71.7588,1221
71.8188,1203
71.8788,1121
71.9388,1035
71.9988,1103
72.0588,1076
72.1188,1171
72.1788,1117
72.2388,1092
72.2988,1010
72.3588,1108
72.4188,1036
72.4788,956
72.5388,941
72.5988,942
72.6588,932
72.7188,864
72.7788,902
72.8388,878
72.8988,860
72.9588,927
73.0188,1028
73.0788,1162
73.1388,1331
73.1988,1306
73.2588,1282
73.3188,1179
73.3788,1241
73.4388,1204
73.4988,1180
73.5588,1155
73.6188,1031
73.6788,1089
73.7388,932
73.7988,936
73.8588,823
73.9188,922
73.9788,871
74.0388,902
74.0988,913
74.1588,970
74.2188,1041
74.2788,1050
74.3388,1119
74.3988,1127
74.4588,1126
74.5188,1201
74.5788,1065
74.6388,982
74.6988,962
74.7588,881
74.8188,828
74.8788,922
74.9388,798
74.9988,876
75.0588,852
75.1188,1025
75.1788,967
75.2388,914
75.2988,916
75.3588,874
75.4188,898
75.4788,845
75.5388,876
75.5988,880
75.6588,941
75.7188,881
75.7788,1062
75.8388,1134
75.8988,1355
75.9588,1405
76.0188,1363
76.0788,1380
76.1388,1481
76.1988,1449
76.2588,1394
76.3188,1338
76.3788,1190
76.4388,1102
76.4988,1107
76.5588,1196
76.6188,993
76.6788,1087
76.7388,1092
76.7988,1131
76.8588,1340
76.9188,1551
76.9788,1604
77.0388,1453
77.0988,1593
77.1588,1568
77.2188,1493
77.2788,1296
77.3388,1246
77.3988,1081
77.4588,1025
77.5188,942
77.5788,903
77.6388,858
77.6988,761
77.7588,818
77.8188,727
77.8788,813
77.9388,769
77.9988,803
78.0588,764
78.1188,804
78.1788,739
78.2388,711
78.2988,730
78.3588,713
78.4188,772
78.4788,836
78.5388,792
78.5988,779
78.6588,884
78.7188,856
78.7788,923
78.8388,971
78.8988,1058
78.9588,948
79.0188,1035
79.0788,1145
79.1388,1231
79.1988,1300
79.2588,1087
79.3188,1091
79.3788,1055
79.4388,1044
79.4988,950
79.5588,951
79.6188,933
79.6788,837
79.7388,861
79.7988,847
79.8588,861
79.9188,813
79.9788,906
80.0388,838
80.0988,880
80.1588,968
80.2188,939
80.2788,906
80.3388,876
80.3988,796
80.4588,828
80.5188,815
80.5788,755
80.6388,768
80.6988,734
80.7588,752
80.8188,820
80.8788,871
80.9388,924
80.9988,1033
81.0588,1047
81.1188,1110
81.1788,1066
81.2388,1085
81.2988,1023
81.3588,939
81.4188,905
81.4788,816
81.5388,757
81.5988,770
81.6588,718
81.7188,675
81.7788,700
81.8388,693
81.8988,669
81.9588,689
82.0188,693
82.0788,699
82.1388,759
82.1988,743
82.2588,852
82.3188,876
82.3788,983
82.4388,1033
82.4988,938
82.5588,887
82.6188,917
82.6788,967
82.7388,890
82.7988,903
82.8588,899
82.9188,1011
82.9788,1181
83.0388,1131
83.0988,1214
83.1588,1402
83.2188,1483
83.2788,1830
83.3388,2006
83.3988,2062
83.4588,1809
83.5188,1880
83.5788,1934
83.6388,1742
83.6988,1442
83.7588,1335
83.8188,1189
83.8788,1210
83.9388,1283
83.9988,1154
84.0588,1207
84.1188,1175
84.1788,1122
84.2388,1216
84.2988,1230
84.3588,1148
84.4188,1169
84.4788,1109
84.5388,1094
84.5988,1061
84.6588,1090
84.7188,963
84.7788,958
84.8388,1025
84.8988,903
84.9588,891
85.0188,816
85.0788,750
85.1388,728
85.1988,676
85.2588,753
85.3188,749
85.3788,777
85.4388,797
85.4988,896
85.5588,880
85.6188,813
85.6788,834
85.7388,859
85.7988,856
85.8588,942
85.9188,835
85.9788,771
86.0388,726
86.0988,719
86.1588,783
86.2188,792
86.2788,847
86.3388,903
86.3988,1015
86.4588,1131
86.5188,1310
86.5788,1346
86.6388,1147
86.6988,1138
86.7588,1195
86.8188,1186
86.8788,1189
86.9388,1067
86.9988,1023
87.0588,1042
87.1188,963
87.1788,899
87.2388,872
87.2988,827
87.3588,835
87.4188,823
87.4788,819
87.5388,829
87.5988,799
87.6588,924
87.7188,876
87.7788,973
87.8388,878
87.8988,857
87.9588,886
88.0188,867
88.0788,878
88.1388,805
88.1988,757
88.2588,815
88.3188,820
88.3788,807
88.4388,773
88.4988,860
88.5588,799
88.6188,794
88.6788,782
88.7388,736
88.7988,730
88.8588,709
88.9188,754
88.9788,696
89.0388,711
89.0988,696
89.1588,688
89.2188,688
89.2788,684
89.3388,634
89.3988,622
89.4588,678
89.5188,647
89.5788,775
89.6388,905
89.6988,874
89.7588,859
89.8188,867
89.8788,956
89.9388,908
89.9988,949
90.0388,951