File: data/xrd_icdd_PDF/00-057-0836 (PD3).csv
14.977,783
15.077,840
15.177,791
15.277,854
15.377,773
15.477,804
15.577,751
15.677,750
15.777,754
15.877,745
15.977,743
16.077,677
16.177,721
16.277,738
16.377,664
16.477,618
16.577,694
16.677,640
16.777,630
16.877,668
16.977,622
17.077,587
17.177,547
17.277,622
17.377,565
17.477,618
17.577,599
17.677,631
17.777,715
17.877,645
17.977,597
18.077,582
18.177,562
18.277,578
18.377,595
18.477,568
18.577,518
18.677,531
18.777,545
18.877,540
18.977,548
19.077,512
19.177,497
19.277,531
19.377,500
19.477,555
19.577,546
19.677,545
19.777,528
19.877,510
19.977,469
20.077,552
20.177,520
20.277,509
20.377,498
20.477,490
20.577,484
20.677,529
20.777,486
20.877,530
20.977,574
21.077,544
21.177,563
21.277,542
21.377,505
21.477,539
21.577,495
21.677,530
21.777,519
21.877,520
21.977,549
22.077,555
22.177,519
22.277,575
22.377,507
22.477,526
22.577,498
22.677,503
22.777,495
22.877,494
22.977,492
23.077,466
23.177,466
23.277,471
23.377,453
23.477,469
23.577,466
23.677,536
23.777,459
23.877,482
23.977,451
24.077,475
24.177,527
24.277,485
24.377,487
24.477,508
24.577,535
24.677,584
24.777,588
24.877,499
24.977,479
25.077,515
25.177,491
25.277,494
25.377,512
25.477,493
25.577,528
25.677,536
25.777,508
25.877,469
25.977,597
26.077,561
26.177,617
26.277,690
26.377,806
26.477,1180
26.577,1396
26.677,1483
26.777,1685
26.877,2017
26.977,2952
27.077,6258
27.177,14972
27.277,38833
27.377,110011
27.477,89938
27.577,15944
27.677,5253
27.777,2596
27.877,1921
27.977,1533
28.077,1304
28.177,1206
28.277,1091
28.377,1123
28.477,1095
28.577,1090
28.677,1144
28.777,1082
28.877,1034
28.977,1087
29.077,1108
29.177,1314
29.277,1720
29.377,3250
29.477,7350
29.577,21288
29.677,30429
29.777,8415
29.877,2253
29.977,1359
30.077,1073
30.177,914
30.277,837
30.377,770
30.477,758
30.577,775
30.677,744
30.777,679
30.877,682
30.977,678
31.077,648
31.177,643
31.277,695
31.377,641
31.477,619
31.577,718
31.677,748
31.777,765
31.877,793
31.977,727
32.077,804
32.177,820
32.277,918
32.377,1085
32.477,1885
32.577,4268
32.677,12579
32.777,29237
32.877,13793
32.977,2688
33.077,1314
33.177,848
33.277,788
33.377,704
33.477,696
33.577,580
33.677,606
33.777,541
33.877,553
33.977,515
34.077,570
34.177,517
34.277,527
34.377,495
34.477,503
34.577,527
34.677,532
34.777,502
34.877,474
34.977,437
35.077,486
35.177,452
35.277,499
35.377,449
35.477,427
35.577,439
35.677,439
35.777,450
35.877,446
35.977,499
36.077,712
36.177,530
36.277,451
36.377,413
36.477,424
36.577,395
36.677,417
36.777,411
36.877,411
36.977,430
37.077,415
37.177,418
37.277,454
37.377,588
37.477,1053
37.577,1516
37.677,1057
37.777,936
37.877,1405
37.977,848
38.077,464
38.177,402
38.277,372
38.377,373
38.477,362
38.577,387
38.677,375
38.777,375
38.877,351
38.977,353
39.077,397
39.177,342
39.277,361
39.377,378
39.477,381
39.577,366
39.677,392
39.777,344
39.877,347
39.977,356
40.077,380
40.177,353
40.277,390
40.377,367
40.477,396
40.577,351
40.677,406
40.777,506
40.877,934
40.977,823
41.077,509
41.177,403
41.277,374
41.377,378
41.477,360
41.577,388
41.677,366
41.777,386
41.877,376
41.977,304
42.077,346
42.177,398
42.277,388
42.377,356
42.477,367
42.577,355
42.677,371
42.777,413
42.877,378
42.977,398
43.077,445
43.177,661
43.277,1121
43.377,1103
43.477,817
43.577,568
43.677,540
43.777,556
43.877,534
43.977,598
44.077,635
44.177,673
44.277,803
44.377,1118
44.477,1945
44.577,4401
44.677,15473
44.777,37338
44.877,21648
44.977,5169
45.077,1752
45.177,1071
45.277,815
45.377,789
45.477,696
45.577,640
45.677,599
45.777,603
45.877,579
45.977,602
46.077,567
46.177,562
46.277,499
46.377,570
46.477,545
46.577,613
46.677,769
46.777,1219
46.877,2672
46.977,10630
47.077,9454
47.177,5866
47.277,1412
47.377,770
47.477,629
47.577,567
47.677,519
47.777,497
47.877,519
47.977,484
48.077,472
48.177,432
48.277,466
48.377,479
48.477,472
48.577,432
48.677,445
48.777,486
48.877,477
48.977,458
49.077,496
49.177,463
49.277,475
49.377,523
49.477,531
49.577,599
49.677,524
49.777,515
49.877,534
49.977,527
50.077,529
50.177,525
50.277,537
50.377,574
50.477,539
50.577,693
50.677,804
50.777,839
50.877,1063
50.977,1849
51.077,4016
51.177,15930
51.277,19681
51.377,13575
51.477,3258
51.577,1352
51.677,931
51.777,713
51.877,647
51.977,593
52.077,537
52.177,564
52.277,494
52.377,527
52.477,503
52.577,524
52.677,487
52.777,454
52.877,482
52.977,472
53.077,474
53.177,492
53.277,515
53.377,605
53.477,544
53.577,521
53.677,584
53.777,537
53.877,542
53.977,562
54.077,581
54.177,582
54.277,582
54.377,570
54.477,627
54.577,667
54.677,675
54.777,829
54.877,993
54.977,1623
55.077,2867
55.177,8898
55.277,29837
55.377,15468
55.477,11306
55.577,2681
55.677,1364
55.777,970
55.877,921
55.977,961
56.077,965
56.177,910
56.277,1195
56.377,1891
56.477,5909
56.577,15419
56.677,8127
56.777,4943
56.877,1407
56.977,933
57.077,700
57.177,647
57.277,592
57.377,586
57.477,510
57.577,512
57.677,471
57.777,508
57.877,465
57.977,485
58.077,481
58.177,474
58.277,438
58.377,459
58.477,459
58.577,425
58.677,418
58.777,450
58.877,409
58.977,427
59.077,408
59.177,411
59.277,469
59.377,402
59.477,432
59.577,382
59.677,390
59.777,422
59.877,416
59.977,429
60.077,444
60.177,405
60.277,393
60.377,412
60.477,379
60.577,395
60.677,430
60.777,404
60.877,380
60.977,400
61.077,409
61.177,450
61.277,548
61.377,911
61.477,2830
61.577,2580
61.677,2265
61.777,1029
61.877,585
61.977,436
62.077,376
62.177,397
62.277,383
62.377,367
62.477,381
62.577,376
62.677,352
62.777,346
62.877,359
62.977,340
63.077,374
63.177,343
63.277,359
63.377,324
63.477,340
63.577,357
63.677,346
63.777,355
63.877,363
63.977,334
64.077,331
64.177,372
64.277,331
64.377,378
64.477,330
64.577,354
64.677,317
64.777,326
64.877,339
64.977,343
65.077,367
65.177,330
65.277,321
65.377,287
65.477,319
65.577,354
65.677,333
65.777,332
65.877,384
65.977,328
66.077,366
66.177,344
66.277,339
66.377,350
66.477,399
66.577,417
66.677,368
66.777,382
66.877,371
66.977,347
67.077,381
67.177,341
67.277,350
67.377,333
67.477,315
67.577,366
67.677,313
67.777,353
67.877,394
67.977,366
68.077,356
68.177,384
68.277,450
68.377,514
68.477,690
68.577,1351
68.677,3663
68.777,1723
68.877,2200
68.977,847
69.077,583
69.177,452
69.277,435
69.377,451
69.477,420
69.577,415
69.677,441
69.777,441
69.877,444
69.977,429
70.077,401
70.177,436
70.277,423
70.377,467
70.477,438
70.577,469
70.677,573
70.777,494
70.877,521
70.977,552
71.077,633
71.177,826
71.277,1259
71.377,2990
71.477,8604
71.577,3768
71.677,5048
71.777,2394
71.877,2157
71.977,5521
72.077,13869
72.177,5374
72.277,7650
72.377,2574
72.477,1103
72.577,775
72.677,644
72.777,620
72.877,558
72.977,535
73.077,508
73.177,467
73.277,493
73.377,438
73.477,478
73.577,481
73.677,458
73.777,518
73.877,527
73.977,487
74.077,507
74.177,450
74.277,458
74.377,440
74.477,458
74.577,451
74.677,446
74.777,460
74.877,488
74.977,489
75.077,588
75.177,715
75.277,956
75.377,2845
75.477,5223
75.577,2044
75.677,3160
75.777,1117
75.877,710
75.977,592
76.077,599
76.177,643
76.277,722
76.377,1076
76.477,3080
76.577,4626
76.677,2095
76.777,3037
76.877,1122
76.977,650
77.077,581
77.177,505
77.277,468
77.377,471
77.477,442
77.577,517
77.677,502
77.777,537
77.877,619
77.977,752
78.077,1393
78.177,4647
78.277,2556
78.377,2173
78.477,2324
78.577,884
78.677,597
78.777,509
78.877,454
78.977,453
79.077,451
79.177,430
79.277,433
79.377,417
79.477,395
79.577,413
79.677,391
79.777,406
79.877,426
79.977,426
80.077,419
80.177,404
80.277,438
80.377,441
80.477,530
80.577,600
80.677,892
80.777,1838
80.877,4846
80.977,1962
81.077,2397
81.177,1812
81.277,743
81.377,544
81.477,491
81.577,459
81.677,417
81.777,431
81.877,375
81.977,433
82.077,424
82.177,444
82.277,455
82.377,395
82.477,395
82.577,372
82.677,401
82.777,398
82.877,417
82.977,446
83.077,445
83.177,415
83.277,453
83.377,472
83.477,414
83.577,500
83.677,502
83.777,621
83.877,798
83.977,1676
84.077,4924
84.177,2307
84.277,2032
84.377,2525
84.477,954
84.577,634
84.677,516
84.777,465
84.877,492
84.977,452
85.077,445
85.177,521
85.277,595
85.377,613
85.477,712
85.577,1073
85.677,2407
85.777,6664
85.877,2706
85.977,2693
86.077,2968
86.177,1094
86.277,699
86.377,538
86.477,458
86.577,425
86.677,416
86.777,434
86.877,392
86.977,388
87.077,369
87.177,361
87.277,376
87.377,406
87.477,360
87.577,367
87.677,378
87.777,374
87.877,399
87.977,390
88.077,356
88.177,392
88.277,354
88.377,390
88.477,360
88.577,402
88.677,373
88.777,351
88.877,343
88.977,361
89.077,346
89.177,395
89.277,373
89.377,359
89.477,373
89.577,333
89.677,406
89.777,420
89.877,378
89.977,377
90.077,425
90.177,422
90.277,476
90.377,677
90.477,1179
90.577,3048
90.677,1567
90.777,1065
90.877,1853
90.977,841
91.077,540
91.177,434
91.277,430
91.377,404
91.477,371
91.577,360
91.677,386
91.777,345
91.877,339
91.977,375
92.077,344
92.177,371
92.277,381
92.377,387
92.477,382
92.577,354
92.677,370
92.777,385
92.877,340
92.977,326
93.077,392
93.177,418
93.277,425
93.377,494
93.477,577
93.577,755
93.677,1253
93.777,3527
93.877,4154
93.977,1682
94.077,2222
94.177,2470
94.277,1014
94.377,632
94.477,509
94.577,432
94.677,394
94.777,438
94.877,385
94.977,420
95.077,389
95.177,365
95.277,329
95.377,363
95.477,341
95.577,351
95.677,374
95.777,365
95.877,327
95.977,396
96.077,375
96.177,345
96.277,346
96.377,347
96.477,369
96.577,361
96.677,337
96.777,372
96.877,390
96.977,384
97.077,344
97.177,365
97.277,362
97.377,355
97.477,321
97.577,370
97.677,389
97.777,360
97.877,370
97.977,356
98.077,378
98.177,376
98.277,380
98.377,378
98.477,381
98.577,402
98.677,433
98.777,458
98.877,546
98.977,685
99.077,1311
99.177,2657
99.277,1425
99.377,885
99.477,1421
99.577,1221
99.677,682
99.777,537
99.877,507
99.977,510
100.077,629
100.177,1195
100.277,871
100.377,601
100.477,731
100.577,788
100.677,520
100.777,489
100.877,460
100.977,427
101.077,438
101.177,418
101.277,401
101.377,427
101.477,415
101.577,423
101.677,405
101.777,463
101.877,495
101.977,485
102.077,612
102.177,823
102.277,1376
102.377,3758
102.477,3888
102.577,1667
102.677,1619
102.777,2719
102.877,1432
102.977,809
103.077,567
103.177,449
103.277,505
103.377,421
103.477,408
103.577,401
103.677,413
103.777,416
103.877,436
103.977,409
104.077,411
104.177,409
104.277,412
104.377,391
104.477,439
104.577,377
104.677,396
104.777,417
104.877,420
104.977,411
105.077,430
105.177,445
105.277,415
105.377,456
105.477,461
105.577,507
105.677,594
105.777,975
105.877,1027
105.977,626
106.077,605
106.177,744
106.277,712
106.377,482
106.477,449
106.577,425
106.677,388
106.777,431
106.877,412
106.977,417
107.077,439
107.177,431
107.277,425
107.377,445
107.477,472
107.577,474
107.677,465
107.777,521
107.877,561
107.977,513
108.077,517
108.177,673
108.277,720
108.377,1079
108.477,2027
108.577,4173
108.677,2308
108.777,1401
108.877,1810
108.977,3045
109.077,3042
109.177,4374
109.277,2182
109.377,1632
109.477,1941
109.577,3467
109.677,3076
109.777,1484
109.877,1028
109.977,1228
110.077,1448
110.177,864
110.277,666
110.377,570
110.477,552
110.577,526
110.677,482
110.777,480
110.877,490
110.977,491
111.077,448
111.177,505
111.277,494
111.377,483
111.477,469
111.577,463
111.677,467
111.777,496
111.877,495
111.977,455
112.077,559
112.177,595
112.277,626
112.377,769
112.477,1183
112.577,2522
112.677,3407
112.777,1596
112.877,1168
112.977,1334
113.077,2046
113.177,1154
113.277,796
113.377,640
113.477,679
113.577,757
113.677,1030
113.777,2222
113.877,1585
113.977,888
114.077,846
114.177,1164
114.277,1301
114.377,756
114.477,570
114.577,502
114.677,525
114.777,494
114.877,470
114.977,509
115.077,472
115.177,463
115.277,519
115.377,592
115.477,759
115.577,1194
115.677,850
115.777,640
115.877,623
115.977,758
116.077,760
116.177,528
116.277,487
116.377,452
116.477,465
116.577,443
116.677,466
116.777,419
116.877,463
116.977,482
117.077,410
117.177,442
117.277,446
117.377,452
117.477,432
117.577,471
117.677,500
117.777,428
117.877,464
117.977,437
118.077,444
118.177,462
118.277,469
118.377,423
118.477,452
118.577,470
118.677,455
118.777,491
118.877,458
118.977,480
119.077,513
119.177,510
119.277,557
119.377,658
119.477,839
119.577,1250
119.677,2360
119.777,1495
119.877,922
119.977,807
120.077,1053
120.177,1432
120.277,977
120.377,748
120.477,597
120.577,539
120.677,479
120.777,513
120.877,471
120.977,483
121.077,485
121.177,466
121.277,486
121.377,523
121.477,506
121.577,487
121.677,489
121.777,554
121.877,614
121.977,704
122.077,1016
122.177,1827
122.277,1958
122.377,1112
122.477,813
122.577,864
122.677,1148
122.777,1346
122.877,888
122.977,662
123.077,596
123.177,546
123.277,467
123.377,525
123.477,517
123.577,510
123.677,507
123.777,577
123.877,594
123.977,670
124.077,911
124.177,1523
124.277,1755
124.377,1110
124.477,784
124.577,735
124.677,900
124.777,1133
124.877,921
124.977,728
125.077,625
125.177,574
125.277,581
125.377,524
125.477,534
125.577,523
125.677,548
125.777,571
125.877,619
125.977,694
126.077,957
126.177,1708
126.277,1600
126.377,938
126.477,771
126.577,712
126.677,849
126.777,1169
126.877,943
126.977,657
127.077,595
127.177,530
127.277,542
127.377,514
127.477,505
127.577,508
127.677,488
127.777,511
127.877,480
127.977,518
128.077,524
128.177,481
128.277,467
128.377,488
128.477,510
128.577,496
128.677,500
128.777,499
128.877,552
128.977,549
129.077,542
129.177,517
129.277,522
129.377,554
129.477,537
129.577,592
129.677,575
129.777,615
129.877,745
129.977,909
130.077,1226
130.177,2087
130.277,3591
130.377,2504
130.477,1391
130.577,1044
130.677,1037
130.777,1317
130.877,1999
130.977,1753
131.077,1087
131.177,783
131.277,667
131.377,655
131.477,574
131.577,597
131.677,565
131.777,594
131.877,575
131.977,574
132.077,584
132.177,588
132.277,584
132.377,576
132.477,585
132.577,671
132.677,808
132.777,1048
132.877,1631
132.977,2282
133.077,1626
133.177,1020
133.277,844
133.377,838
133.477,980
133.577,1252
133.677,1356
133.777,1026
133.877,754
133.977,660
134.077,619
134.177,585
134.277,550
134.377,542
134.477,563
134.577,545
134.677,538
134.777,567
134.877,560
134.977,534
135.077,591
135.177,587
135.277,565
135.377,583
135.477,587
135.577,645
135.677,697
135.777,747
135.877,969
135.977,1292
136.077,1951
136.177,3130
136.277,2543
136.377,1592
136.477,1170
136.577,1011
136.677,1035
136.777,1317
136.877,1798
136.977,1688
137.077,1195
137.177,897
137.277,730
137.377,668
137.477,629
137.577,587
137.677,578
137.777,569
137.877,571
137.977,585
138.077,567
138.177,543
138.277,562
138.377,521
138.477,537
138.577,553
138.677,521
138.777,506
138.877,564
138.977,537
139.077,526
139.177,526
139.277,517
139.377,518
139.477,533
139.577,518
139.677,514
139.777,515
139.877,491
139.977,564
140.077,514
140.177,537
140.277,525
140.377,546
140.477,525
140.577,524
140.677,527
140.777,549
140.877,532
140.977,521
141.077,540
141.177,556
141.277,540
141.377,525
141.477,574
141.577,564
141.677,576
141.777,608
141.877,569
141.977,584
142.077,591
142.177,648
142.277,727
142.377,793
142.477,983
142.577,1234
142.677,1815
142.777,2067
142.877,1490
142.977,1104
143.077,899
143.177,811
143.277,860
143.377,892
143.477,1134
143.577,1338
143.677,1279
143.777,1042
143.877,869
143.977,857
144.077,906
144.177,1116
144.277,1344
144.377,1905
144.477,1962
144.577,1543
144.677,1026
144.777,890
144.877,841
144.977,804
145.077,895
145.177,1014
145.277,1261
145.377,1287
145.477,1124
145.577,856
145.677,763
145.777,667
145.877,666
145.977,586
146.077,637
146.177,634
146.277,646
146.377,634
146.477,613
146.577,600
146.677,643
146.777,621
146.877,627
146.977,646
147.077,641
147.177,611
147.277,661
147.377,675
147.477,706
147.577,711
147.677,764
147.777,794
147.877,949
147.977,1102
148.077,1345
148.177,1834
148.277,2669
148.377,3301
148.477,2820
148.577,2044
148.677,1547
148.777,1220
148.877,1094
148.977,1045
149.077,1154
149.177,1297
149.277,1597
149.377,1914
149.477,1944
149.577,1505
149.677,1203
149.777,964
149.877,818
149.977,775
150.077,752
150.177,666
150.277,731
150.377,645
150.477,622
150.577,640
150.677,655
150.777,583
150.877,629
150.977,641
151.077,650
151.177,642
151.277,576
151.377,593
151.477,640
151.577,611
151.677,635
151.777,569
151.877,602
151.977,584
152.077,603
152.177,580
152.277,593
152.377,596
152.477,616
152.577,597
152.677,620
152.777,579
152.877,599
152.977,605
153.077,647
153.177,621
153.277,632
153.377,562
153.477,575
153.577,618
153.677,583
153.777,648
153.877,612
153.977,585
154.077,594
154.177,590
154.277,574
154.377,592
154.477,631
154.577,587
154.677,585
154.777,627
154.877,580
154.977,551