File: data/xrd_icdd_PDF/00-057-0451 (PD3).csv
10,5815
10.08,6063
10.16,5915
10.24,6235
10.32,5550
10.4,5993
10.48,5835
10.56,6198
10.64,5680
10.72,5855
10.8,5455
10.88,5403
10.96,5318
11.04,5275
11.12,5343
11.2,5250
11.28,5300
11.36,5050
11.44,5240
11.52,5245
11.6,5040
11.68,4933
11.76,5278
11.84,5095
11.92,5183
12,5063
12.08,4938
12.16,4835
12.24,4968
12.32,5070
12.4,4915
12.48,4980
12.56,5185
12.64,5033
12.72,5405
12.8,5478
12.88,5905
12.96,6733
13.04,7483
13.12,10020
13.2,15518
13.28,13160
13.36,5743
13.44,5008
13.52,5028
13.6,4985
13.68,4953
13.76,4860
13.84,5210
13.92,5055
14,4800
14.08,5018
14.16,4925
14.24,4763
14.32,4963
14.4,4670
14.48,4515
14.56,4815
14.64,4985
14.72,4988
14.8,4768
14.88,4693
14.96,4755
15.04,4823
15.12,4910
15.2,4740
15.28,4873
15.36,5055
15.44,5435
15.52,6130
15.6,7375
15.68,5688
15.76,4705
15.84,4735
15.92,4695
16,4655
16.08,4455
16.16,4613
16.24,4785
16.32,4465
16.4,4528
16.48,4400
16.56,4588
16.64,4035
16.72,4428
16.8,4448
16.88,4503
16.96,4293
17.04,4288
17.12,4088
17.2,4280
17.28,4418
17.36,4078
17.44,4400
17.52,4348
17.6,4348
17.68,4323
17.76,4313
17.84,4283
17.92,4325
18,4143
18.08,4103
18.16,4395
18.24,4280
18.32,4008
18.4,4263
18.48,4115
18.56,3888
18.64,4113
18.72,4145
18.8,4090
18.88,3958
18.96,4130
19.04,4138
19.12,4540
19.2,4823
19.28,5415
19.36,6985
19.44,6183
19.52,4360
19.6,4238
19.68,3920
19.76,3663
19.84,3800
19.92,4163
20,3805
20.08,4115
20.16,4053
20.24,3948
20.32,3933
20.4,4010
20.48,3775
20.56,3825
20.64,3870
20.72,3830
20.8,3763
20.88,3893
20.96,3965
21.04,3730
21.12,3710
21.2,3735
21.28,4143
21.36,3813
21.44,3850
21.52,3738
21.6,3988
21.68,3723
21.76,3925
21.84,3745
21.92,3743
22,3578
22.08,3970
22.16,3748
22.24,3648
22.32,3613
22.4,3995
22.48,3863
22.56,3813
22.64,4003
22.72,3630
22.8,4148
22.88,3833
22.96,3863
23.04,3983
23.12,3803
23.2,3705
23.28,3573
23.36,3813
23.44,3765
23.52,3683
23.6,3860
23.68,4215
23.76,4245
23.84,4203
23.92,4345
24,4245
24.08,4680
24.16,5920
24.24,8848
24.32,16060
24.4,36685
24.48,52725
24.56,22120
24.64,6878
24.72,4785
24.8,4440
24.88,4205
24.96,4160
25.04,3860
25.12,3898
25.2,4008
25.28,3733
25.36,4010
25.44,4013
25.52,3793
25.6,3873
25.68,3898
25.76,4018
25.84,4003
25.92,4385
26,4708
26.08,5115
26.16,4713
26.24,4393
26.32,4603
26.4,6095
26.48,9265
26.56,12858
26.64,9025
26.72,5060
26.8,4458
26.88,4570
26.96,4873
27.04,5088
27.12,6995
27.2,10618
27.28,21363
27.36,37583
27.44,24525
27.52,8583
27.6,5048
27.68,4193
27.76,4160
27.84,3988
27.92,4183
28,3948
28.08,3778
28.16,3803
28.24,4003
28.32,4343
28.4,5793
28.48,5580
28.56,4223
28.64,3648
28.72,3520
28.8,3453
28.88,3973
28.96,3965
29.04,3713
29.12,4150
29.2,4393
29.28,4250
29.36,3925
29.44,3893
29.52,4325
29.6,4995
29.68,7028
29.76,9353
29.84,6495
29.92,4095
30,4325
30.08,4593
30.16,4665
30.24,4818
30.32,4180
30.4,3818
30.48,3660
30.56,3808
30.64,3678
30.72,3618
30.8,3860
30.88,3348
30.96,3600
31.04,3650
31.12,3533
31.2,3608
31.28,3483
31.36,3958
31.44,3768
31.52,3880
31.6,3708
31.68,3445
31.76,3418
31.84,3655
31.92,3905
32,3513
32.08,3378
32.16,3423
32.24,3443
32.32,3710
32.4,3758
32.48,3748
32.56,3688
32.64,3613
32.72,3548
32.8,3790
32.88,3985
32.96,4310
33.04,4698
33.12,5743
33.2,9243
33.28,19478
33.36,33460
33.44,22690
33.52,9275
33.6,4810
33.68,4148
33.76,4023
33.84,3943
33.92,3750
34,3550
34.08,3705
34.16,3740
34.24,3483
34.32,3663
34.4,3725
34.48,3818
34.56,3780
34.64,4205
34.72,4483
34.8,7265
34.88,12863
34.96,16678
35.04,15163
35.12,9143
35.2,4708
35.28,4033
35.36,4108
35.44,3990
35.52,3705
35.6,3705
35.68,3575
35.76,3588
35.84,3495
35.92,3883
36,3403
36.08,3528
36.16,3768
36.24,3738
36.32,4258
36.4,5053
36.48,4545
36.56,4083
36.64,3625
36.72,3598
36.8,3770
36.88,4470
36.96,6253
37.04,10300
37.12,9658
37.2,6160
37.28,4158
37.36,3795
37.44,3573
37.52,3573
37.6,3845
37.68,3583
37.76,3670
37.84,3585
37.92,3633
38,3605
38.08,3748
38.16,3710
38.24,3708
38.32,3650
38.4,3813
38.48,4188
38.56,4263
38.64,5070
38.72,7008
38.8,13210
38.88,26900
38.96,27125
39.04,16873
39.12,8888
39.2,11058
39.28,20568
39.36,16043
39.44,8988
39.52,4838
39.6,3760
39.68,3850
39.76,3943
39.84,3770
39.92,3550
40,3813
40.08,3685
40.16,3723
40.24,3750
40.32,3410
40.4,3578
40.48,3635
40.56,3383
40.64,3540
40.72,3548
40.8,3638
40.88,3565
40.96,3693
41.04,3600
41.12,3750
41.2,3545
41.28,3753
41.36,3325
41.44,3610
41.52,3488
41.6,3918
41.68,4503
41.76,6078
41.84,8635
41.92,6883
42,4915
42.08,3863
42.16,3673
42.24,3463
42.32,3443
42.4,3523
42.48,3285
42.56,3473
42.64,3448
42.72,3700
42.8,3820
42.88,4218
42.96,4920
43.04,5383
43.12,6553
43.2,5995
43.28,5008
43.36,3978
43.44,3775
43.52,3913
43.6,4813
43.68,7298
43.76,7358
43.84,5863
43.92,4238
44,3663
44.08,3590
44.16,3685
44.24,3993
44.32,4408
44.4,5478
44.48,4773
44.56,4253
44.64,3665
44.72,3673
44.8,3618
44.88,3668
44.96,3633
45.04,3663
45.12,3808
45.2,3840
45.28,4230
45.36,5108
45.44,6675
45.52,12213
45.6,17875
45.68,14580
45.76,10025
45.84,5720
45.92,4418
46,4295
46.08,4110
46.16,4108
46.24,4340
46.32,4908
46.4,6360
46.48,11385
46.56,23543
46.64,22653
46.72,17200
46.8,8698
46.88,5088
46.96,3978
47.04,3808
47.12,3675
47.2,3520
47.28,3593
47.36,3425
47.44,3640
47.52,3675
47.6,3943
47.68,4130
47.76,4280
47.84,4265
47.92,4890
48,4653
48.08,4398
48.16,3695
48.24,3570
48.32,3868
48.4,4130
48.48,4228
48.56,4010
48.64,3918
48.72,3443
48.8,3770
48.88,3593
48.96,4190
49.04,4738
49.12,5540
49.2,5368
49.28,4768
49.36,4223
49.44,4453
49.52,6108
49.6,10903
49.68,12448
49.76,12478
49.84,8705
49.92,6150
50,4388
50.08,4145
50.16,3888
50.24,3678
50.32,3488
50.4,3698
50.48,3490
50.56,3453
50.64,3568
50.72,3740
50.8,4048
50.88,3993
50.96,5445
51.04,9635
51.12,14925
51.2,10558
51.28,9630
51.36,9100
51.44,10140
51.52,7738
51.6,5883
51.68,4125
51.76,3655
51.84,3580
51.92,3725
52,3725
52.08,3640
52.16,4408
52.24,4868
52.32,8243
52.4,10810
52.48,8293
52.56,6665
52.64,4363
52.72,3790
52.8,3538
52.88,3320
52.96,3428
53.04,3380
53.12,3210
53.2,3248
53.28,3425
53.36,3283
53.44,4003
53.52,4733
53.6,3988
53.68,3950
53.76,3498
53.84,3425
53.92,3210
54,3348
54.08,3300
54.16,3243
54.24,3443
54.32,3258
54.4,3173
54.48,3393
54.56,3705
54.64,3640
54.72,3663
54.8,3558
54.88,3303
54.96,3210
55.04,3415
55.12,3508
55.2,3360
55.28,3578
55.36,3765
55.44,3973
55.52,4205
55.6,4718
55.68,4515
55.76,4250
55.84,3848
55.92,3278
56,3100
56.08,3688
56.16,3705
56.24,3880
56.32,3503
56.4,3485
56.48,3345
56.56,3120
56.64,3375
56.72,3625
56.8,3958
56.88,3480
56.96,3803
57.04,3593
57.12,3245
57.2,3388
57.28,3223
57.36,3023
57.44,3438
57.52,3340
57.6,3028
57.68,3045
57.76,3085
57.84,3050
57.92,3123
58,3200
58.08,3548
58.16,3305
58.24,3195
58.32,3250
58.4,3530
58.48,3473
58.56,4138
58.64,5828
58.72,6648
58.8,5368
58.88,4978
58.96,3883
59.04,3563
59.12,3478
59.2,3470
59.28,3290
59.36,3098
59.44,3370
59.52,3368
59.6,3440
59.68,3898
59.76,3768
59.84,3510
59.92,3455
60,3225
60.08,3110
60.16,3188
60.24,3320
60.32,3373
60.4,3835
60.48,4328
60.56,5268
60.64,7420
60.72,8240
60.8,5945
60.88,5713
60.96,4158
61.04,3605
61.12,3578
61.2,3850
61.28,3815
61.36,3893
61.44,3985
61.52,4410
61.6,5370
61.68,8283
61.76,7648
61.84,6835
61.92,5683
62,4263
62.08,3725
62.16,3515
62.24,3310
62.32,3400
62.4,3398
62.48,3348
62.56,3480
62.64,3760
62.72,4295
62.8,4773
62.88,4195
62.96,4088
63.04,3610
63.12,3283
63.2,3210
63.28,3015
63.36,3283
63.44,3205
63.52,3288
63.6,3160
63.68,2995
63.76,2998
63.84,3150
63.92,3040
64,3225
64.08,3655
64.16,4220
64.24,4125
64.32,4128
64.4,4078
64.48,3690
64.56,3570
64.64,3663
64.72,3295
64.8,3690
64.88,4280
64.96,5995
65.04,5483
65.12,5108
65.2,5735
65.28,7000
65.36,6140
65.44,5785
65.52,5705
65.6,4805
65.68,4075
65.76,3670
65.84,3505
65.92,3830
66,4543
66.08,4055
66.16,3750
66.24,3748
66.32,3160
66.4,3033
66.48,3190
66.56,3248
66.64,3080
66.72,3005
66.8,3280
66.88,3080
66.96,3178
67.04,3223
67.12,2995
67.2,3053
67.28,3365
67.36,3100
67.44,3715
67.52,3860
67.6,3543
67.68,3623
67.76,3393
67.84,3468
67.92,3425
68,3003
68.08,3340
68.16,3508
68.24,3980
68.32,4073
68.4,3810
68.48,4038
68.56,3843
68.64,3423
68.72,3575
68.8,4675
68.88,6405
68.96,4953
69.04,5023
69.12,4470
69.2,3698
69.28,3328
69.36,3205
69.44,3413
69.52,3635
69.6,4348
69.68,5763
69.76,5710
69.84,4995
69.92,5085
70,4553
70.08,4155
70.16,3865
70.24,3643
70.32,3445
70.4,3125
70.48,3233
70.56,3433
70.64,3595
70.72,3593
70.8,3693
70.88,3670
70.96,3795
71.04,4655
71.12,4693
71.2,4410
71.28,4340
71.36,4018
71.44,3388
71.52,3313
71.6,3168
71.68,3148
71.76,2970
71.84,3133
71.92,3183
72,3543
72.08,4098
72.16,3495
72.24,3335
72.32,3520
72.4,3315
72.48,3263
72.56,3100
72.64,3185
72.72,3305
72.8,3203
72.88,3338
72.96,3275
73.04,3308
73.12,3415
73.2,4200
73.28,4285
73.36,3858
73.44,4108
73.52,4055
73.6,3648
73.68,3583
73.76,3370
73.84,3530
73.92,3415
74,3273
74.08,3253
74.16,3303
74.24,3548
74.32,4308
74.4,4193
74.48,3948
74.56,4538
74.64,4428
74.72,3948
74.8,3563
74.88,3660
74.96,3408
75.04,3270
75.12,3440
75.2,3425
75.28,3048
75.36,3155
75.44,3330
75.52,3203
75.6,3443
75.68,3613
75.76,3520
75.84,3798
75.92,4588
76,4360
76.08,3830
76.16,4043
76.24,4073
76.32,4005
76.4,3933
76.48,3615
76.56,3753
76.64,3765
76.72,3443
76.8,3355
76.88,3105
76.96,3213
77.04,3390
77.12,3773
77.2,4040
77.28,4833
77.36,4903
77.44,4228
77.52,4328
77.6,3823
77.68,3653
77.76,3598
77.84,3413
77.92,3820
78,4745
78.08,5155
78.16,4468
78.24,4125
78.32,3958
78.4,3780
78.48,3385
78.56,3570
78.64,3458
78.72,3295
78.8,3498
78.88,4008
78.96,3603
79.04,3658
79.12,3853
79.2,3503
79.28,3575
79.36,3275
79.44,3525
79.52,3523
79.6,4093
79.68,4940
79.76,4838
79.84,4063
79.92,4415
80,4045
80.08,3978
80.16,3463
80.24,3485
80.32,3273
80.4,3450
80.48,3590
80.56,3243
80.64,3388
80.72,3380
80.8,3755
80.88,4295
80.96,5145
81.04,4283
81.12,4005
81.2,4263
81.28,3920
81.36,3828
81.44,3908
81.52,4305
81.6,5455
81.68,5760
81.76,4888
81.84,4543
81.92,4540
82,4060
82.08,3778
82.16,3678
82.24,3493
82.32,3450
82.4,3463
82.48,3930
82.56,3653
82.64,3438
82.72,3483
82.8,3793
82.88,3275
82.96,3645
83.04,4213
83.12,4295
83.2,3833
83.28,3958
83.36,4263
83.44,4025
83.52,3690
83.6,3725
83.68,3593
83.76,3783
83.84,3985
83.92,4338
84,3413
84.08,3788
84.16,3695
84.24,3500
84.32,3500
84.4,3813
84.48,3798
84.56,3525
84.64,3665
84.72,3465
84.8,3493
84.88,4270
84.96,4800
85.04,4555
85.12,4020
85.2,4208
85.28,4098
85.36,3695
85.44,3470
85.52,3293
85.6,2895
85.68,3183
85.76,3115
85.84,3148
85.92,3170
86,2968
86.08,3183
86.16,3143
86.24,3313
86.32,3040
86.4,3178
86.48,3298
86.56,2995
86.64,2870
86.72,3105
86.8,3278
86.88,3220
86.96,3210
87.04,3693
87.12,4135
87.2,4385
87.28,4163
87.36,3983
87.44,3885
87.52,3723
87.6,3675
87.68,3428
87.76,3425
87.84,3165
87.92,3225
88,3305
88.08,3233
88.16,3070
88.24,3103
88.32,3928
88.4,4358
88.48,3553
88.56,3638
88.64,3903
88.72,3973
88.8,3615
88.88,3395
88.96,3375
89.04,3200
89.12,3315
89.2,3338
89.28,3460
89.36,4233
89.44,4960
89.52,4805
89.6,4758
89.68,4350
89.76,4370
89.84,3845
89.92,3633
90,3505
90.08,3363
90.16,3403
90.24,3985
90.32,3940
90.4,3715
90.48,3343
90.56,3650
90.64,3483
90.72,3140
90.8,3005
90.88,3118
90.96,3495
91.04,3378
91.12,3290
91.2,3370
91.28,3235
91.36,3283
91.44,3250
91.52,2860
91.6,3093
91.68,3075
91.76,3110
91.84,2805
91.92,2908
92,2918
92.08,2963
92.16,3020
92.24,2725
92.32,2980
92.4,2800
92.48,2895
92.56,3133
92.64,2835
92.72,2890
92.8,2980
92.88,3070
92.96,2880
93.04,3260
93.12,3273
93.2,3795
93.28,4038
93.36,3828
93.44,3918
93.52,3675
93.6,3665
93.68,3443
93.76,3453
93.84,3470
93.92,3743
94,3388
94.08,3465
94.16,3495
94.24,3328
94.32,3118
94.4,3350
94.48,3273
94.56,3513
94.64,3560
94.72,3393
94.8,3233
94.88,3105
94.96,3113
95.04,3128
95.12,3158
95.2,3113
95.28,2793
95.36,2858
95.44,2770
95.52,2845
95.6,2910
95.68,2760
95.76,2858
95.84,3048
95.92,2905
96,3345
96.08,3543
96.16,3285
96.24,3690
96.32,4195
96.4,3883
96.48,3413
96.56,3568
96.64,3723
96.72,3160
96.8,3150
96.88,2983
96.96,3105
97.04,3225
97.12,3023
97.2,3175
97.28,3200
97.36,3425
97.44,3438
97.52,3293
97.6,3273
97.68,3298
97.76,3090
97.84,3048
97.92,2995
98,3098
98.08,3093
98.16,3058
98.24,3230
98.32,3315
98.4,3308
98.48,3403
98.56,3460
98.64,3510
98.72,3480
98.8,3335
98.88,3280
98.96,3360
99.04,3190
99.12,3265
99.2,3313
99.28,3310
99.36,3420
99.44,3313
99.52,3193
99.6,3393
99.68,3195
99.76,3118
99.84,3363
99.92,3385
100,3335