File: data/xrd_icdd_PDF/00-060-0191 (PD3).csv
8.81,19131
8.875,18997
8.94,18738
9.005,18586
9.07,18473
9.135,18461
9.2,18359
9.265,18299
9.33,18157
9.395,17850
9.46,17967
9.525,18003
9.59,17715
9.655,17764
9.72,17748
9.785,17726
9.85,17493
9.915,17379
9.98,17405
10.045,17212
10.11,17101
10.175,17216
10.24,17040
10.305,16900
10.37,16765
10.435,16672
10.5,16622
10.565,16499
10.63,16557
10.695,16506
10.76,16429
10.825,16263
10.89,16113
10.955,16439
11.02,16073
11.085,15974
11.15,16005
11.215,15815
11.28,15730
11.345,15707
11.41,15583
11.475,15597
11.54,15527
11.605,15472
11.67,15237
11.735,15216
11.8,15158
11.865,15221
11.93,14939
11.995,15005
12.06,14876
12.125,14709
12.19,14499
12.255,14646
12.32,14597
12.385,14616
12.45,14514
12.515,14182
12.58,14134
12.645,14184
12.71,14040
12.775,14086
12.84,14080
12.905,13854
12.97,13968
13.035,13920
13.1,13853
13.165,13775
13.23,13672
13.295,13429
13.36,13491
13.425,13611
13.49,13417
13.555,13318
13.62,13282
13.685,13120
13.75,13259
13.815,13205
13.88,13099
13.945,13076
14.01,12994
14.075,12889
14.14,12661
14.205,12752
14.27,12716
14.335,12721
14.4,12481
14.465,12611
14.53,12534
14.595,12437
14.66,12456
14.725,12386
14.79,12298
14.855,12262
14.92,12032
14.985,12059
15.05,12165
15.115,12017
15.18,11910
15.245,12024
15.31,11939
15.375,11929
15.44,11957
15.505,11877
15.57,11678
15.635,11736
15.7,11619
15.765,11665
15.83,11630
15.895,11600
15.96,11558
16.025,11477
16.09,11536
16.155,11480
16.22,11332
16.285,11446
16.35,11322
16.415,11315
16.48,11105
16.545,11130
16.61,11200
16.675,11286
16.74,11082
16.805,10966
16.87,10991
16.935,11061
17,10849
17.065,10993
17.13,10964
17.195,10997
17.26,10956
17.325,10805
17.39,10856
17.455,10852
17.52,10853
17.585,10674
17.65,10752
17.715,10943
17.78,10810
17.845,10888
17.91,10790
17.975,10700
18.04,10699
18.105,10466
18.17,10497
18.235,10535
18.3,10552
18.365,10559
18.43,10505
18.495,10630
18.56,10569
18.625,10483
18.69,10536
18.755,10414
18.82,10468
18.885,10390
18.95,10289
19.015,10327
19.08,10416
19.145,10255
19.21,10269
19.275,10344
19.34,10237
19.405,10123
19.47,10285
19.535,10169
19.6,10173
19.665,10208
19.73,10142
19.795,9995
19.86,10200
19.925,10143
19.99,10160
20.055,10153
20.12,10228
20.185,10220
20.25,10411
20.315,10730
20.38,10942
20.445,11300
20.51,12305
20.575,13519
20.64,16024
20.705,20073
20.77,24639
20.835,14743
20.9,12138
20.965,11333
21.03,10798
21.095,10464
21.16,10206
21.225,9952
21.29,9692
21.355,9457
21.42,9305
21.485,9234
21.55,9129
21.615,9126
21.68,9079
21.745,8942
21.81,8897
21.875,8805
21.94,8810
22.005,8838
22.07,8895
22.135,8875
22.2,8898
22.265,8872
22.33,8682
22.395,8555
22.46,8754
22.525,8629
22.59,8457
22.655,8546
22.72,8493
22.785,8388
22.85,8479
22.915,8322
22.98,8330
23.045,8359
23.11,8275
23.175,8290
23.24,8230
23.305,8303
23.37,8276
23.435,8219
23.5,8336
23.565,8319
23.63,8301
23.695,8361
23.76,8395
23.825,8510
23.89,8632
23.955,8894
24.02,9480
24.085,10357
24.15,10935
24.215,12561
24.28,9188
24.345,8227
24.41,7985
24.475,7789
24.54,7668
24.605,7646
24.67,7731
24.735,7619
24.8,7700
24.865,7857
24.93,8021
24.995,7978
25.06,7587
25.125,7415
25.19,7322
25.255,7263
25.32,7174
25.385,7142
25.45,7155
25.515,7145
25.58,7140
25.645,7289
25.71,7245
25.775,6983
25.84,6986
25.905,6926
25.97,7060
26.035,6990
26.1,6816
26.165,7026
26.23,6927
26.295,6805
26.36,6715
26.425,6755
26.49,6764
26.555,6660
26.62,6708
26.685,6799
26.75,6680
26.815,6647
26.88,6640
26.945,6621
27.01,6626
27.075,6605
27.14,6463
27.205,6522
27.27,6632
27.335,6549
27.4,6562
27.465,6775
27.53,6819
27.595,6918
27.66,7353
27.725,7944
27.79,8768
27.855,10504
27.92,13883
27.985,18618
28.05,12348
28.115,8241
28.18,7182
28.245,6806
28.31,6541
28.375,6490
28.44,6243
28.505,6186
28.57,6192
28.635,6100
28.7,6010
28.765,6060
28.83,6069
28.895,6053
28.96,6041
29.025,6117
29.09,5946
29.155,6000
29.22,5988
29.285,5931
29.35,5923
29.415,6114
29.48,6298
29.545,6447
29.61,7098
29.675,7510
29.74,7527
29.805,8195
29.87,7308
29.935,6319
30,5839
30.065,5773
30.13,5688
30.195,5642
30.26,5663
30.325,5617
30.39,5548
30.455,5653
30.52,5526
30.585,5562
30.65,5560
30.715,5580
30.78,5587
30.845,5610
30.91,5641
30.975,5793
31.04,5786
31.105,5840
31.17,6011
31.235,5961
31.3,5612
31.365,5509
31.43,5506
31.495,5439
31.56,5367
31.625,5443
31.69,5405
31.755,5431
31.82,5595
31.885,5705
31.95,5830
32.015,6237
32.08,6393
32.145,6948
32.21,8134
32.275,10028
32.34,14057
32.405,21085
32.47,35633
32.535,59617
32.6,45738
32.665,18507
32.73,13929
32.795,14364
32.86,17893
32.925,25499
32.99,38190
33.055,66705
33.12,55267
33.185,18663
33.25,11763
33.315,9073
33.38,7788
33.445,7078
33.51,6476
33.575,5984
33.64,5725
33.705,5441
33.77,5316
33.835,5164
33.9,5135
33.965,5092
34.03,5031
34.095,5008
34.16,4944
34.225,5025
34.29,5176
34.355,5335
34.42,5410
34.485,5454
34.55,5589
34.615,6013
34.68,6857
34.745,7660
34.81,6902
34.875,6893
34.94,7530
35.005,8988
35.07,11924
35.135,17606
35.2,31725
35.265,49283
35.33,32817
35.395,15427
35.46,11612
35.525,9873
35.59,9611
35.655,10559
35.72,12670
35.785,17665
35.85,29428
35.915,43525
35.98,69817
36.045,74563
36.11,25635
36.175,14262
36.24,10457
36.305,8459
36.37,7399
36.435,6630
36.5,6174
36.565,5873
36.63,5658
36.695,5502
36.76,5441
36.825,5472
36.89,5604
36.955,5774
37.02,5973
37.085,6418
37.15,7024
37.215,7399
37.28,8165
37.345,9914
37.41,12935
37.475,19712
37.54,33803
37.605,56814
37.67,96780
37.735,36744
37.8,16932
37.865,11739
37.93,9727
37.995,8315
38.06,7399
38.125,6595
38.19,6100
38.255,5836
38.32,5647
38.385,5507
38.45,5239
38.515,5147
38.58,5046
38.645,4989
38.71,4918
38.775,4914
38.84,4983
38.905,5149
38.97,5110
39.035,4786
39.1,4816
39.165,4985
39.23,5246
39.295,5308
39.36,5573
39.425,6176
39.49,7204
39.555,9353
39.62,13537
39.685,25531
39.75,38949
39.815,22673
39.88,10700
39.945,7644
40.01,6537
40.075,5986
40.14,5688
40.205,5350
40.27,5179
40.335,5084
40.4,5071
40.465,5110
40.53,5193
40.595,5391
40.66,5619
40.725,5947
40.79,6479
40.855,7288
40.92,9106
40.985,12216
41.05,17100
41.115,28827
41.18,52397
41.245,45673
41.31,17689
41.375,11435
41.44,9283
41.505,8943
41.57,9762
41.635,12419
41.7,8865
41.765,6625
41.83,6113
41.895,5953
41.96,6099
42.025,6660
42.09,7695
42.155,10405
42.22,14691
42.285,12904
42.35,15204
42.415,22742
42.48,36795
42.545,20203
42.61,10098
42.675,7457
42.74,6345
42.805,5721
42.87,5412
42.935,5221
43,5223
43.065,5421
43.13,5973
43.195,7077
43.26,9934
43.325,12027
43.39,7231
43.455,5616
43.52,5302
43.585,5208
43.65,5417
43.715,5783
43.78,6046
43.845,6470
43.91,7508
43.975,9628
44.04,14463
44.105,25810
44.17,35822
44.235,19408
44.3,22194
44.365,36317
44.43,42846
44.495,15959
44.56,9546
44.625,7228
44.69,6073
44.755,5354
44.82,4954
44.885,4561
44.95,4334
45.015,4143
45.08,3999
45.145,3868
45.21,3768
45.275,3726
45.34,3649
45.405,3638
45.47,3590
45.535,3570
45.6,3540
45.665,3556
45.73,3570
45.795,3560
45.86,3534
45.925,3531
45.99,3544
46.055,3551
46.12,3524
46.185,3617
46.25,3640
46.315,3709
46.38,3730
46.445,3914
46.51,4309
46.575,5131
46.64,6477
46.705,10496
46.77,10848
46.835,5615
46.9,4399
46.965,3965
47.03,3741
47.095,3601
47.16,3455
47.225,3453
47.29,3375
47.355,3313
47.42,3245
47.485,3252
47.55,3263
47.615,3270
47.68,3232
47.745,3244
47.81,3234
47.875,3203
47.94,3229
48.005,3199
48.07,3228
48.135,3183
48.2,3140
48.265,3162
48.33,3239
48.395,3243
48.46,3212
48.525,3175
48.59,3183
48.655,3243
48.72,3217
48.785,3255
48.85,3264
48.915,3317
48.98,3413
49.045,3599
49.11,3945
49.175,4871
49.24,4405
49.305,3833
49.37,3669
49.435,3616
49.5,3556
49.565,3636
49.63,3681
49.695,3857
49.76,4632
49.825,5572
49.89,4135
49.955,3537
50.02,3362
50.085,3174
50.15,3130
50.215,3146
50.28,3077
50.345,3098
50.41,3068
50.475,3068
50.54,3119
50.605,3107
50.67,3134
50.735,3178
50.8,3270
50.865,3522
50.93,3362
50.995,3217
51.06,3132
51.125,3157
51.19,3132
51.255,3209
51.32,3243
51.385,3266
51.45,3244
51.515,3249
51.58,3311
51.645,3397
51.71,3392
51.775,3561
51.84,4023
51.905,4783
51.97,7315
52.035,6190
52.1,4135
52.165,3723
52.23,3661
52.295,3658
52.36,3787
52.425,4005
52.49,4501
52.555,5427
52.62,6928
52.685,7758
52.75,11245
52.815,15173
52.88,7499
52.945,5200
53.01,4490
53.075,4248
53.14,4151
53.205,4123
53.27,4212
53.335,4517
53.4,5213
53.465,6922
53.53,11145
53.595,11293
53.66,8953
53.725,12274
53.79,15381
53.855,8032
53.92,5351
53.985,4423
54.05,4052
54.115,3749
54.18,3580
54.245,3421
54.31,3350
54.375,3277
54.44,3257
54.505,3214
54.57,3143
54.635,3157
54.7,3105
54.765,3128
54.83,3181
54.895,3234
54.96,3256
55.025,3411
55.09,3426
55.155,3431
55.22,3637
55.285,4056
55.35,4891
55.415,6851
55.48,11473
55.545,10741
55.61,5454
55.675,4214
55.74,3763
55.805,3581
55.87,3552
55.935,3479
56,3351
56.065,3163
56.13,3146
56.195,3143
56.26,3145
56.325,3159
56.39,3203
56.455,3290
56.52,3406
56.585,3800
56.65,4382
56.715,4595
56.78,5401
56.845,7246
56.91,6177
56.975,4309
57.04,3953
57.105,4219
57.17,5157
57.235,5678
57.3,4182
57.365,3766
57.43,3666
57.495,3810
57.56,4078
57.625,4625
57.69,5924
57.755,8944
57.82,10252
57.885,7622
57.95,5262
58.015,4593
58.08,4197
58.145,4164
58.21,4357
58.275,4981
58.34,6224
58.405,6068
58.47,7590
58.535,11405
58.6,8084
58.665,6100
58.73,6251
58.795,8061
58.86,12353
58.925,9290
58.99,5698
59.055,5172
59.12,5730
59.185,6548
59.25,4738
59.315,3843
59.38,3558
59.445,3423
59.51,3296
59.575,3255
59.64,3186
59.705,3299
59.77,3299
59.835,3166
59.9,3069
59.965,3006
60.03,2996
60.095,2965
60.16,2929
60.225,2964
60.29,2976
60.355,2976
60.42,2944
60.485,3073
60.55,3088
60.615,3024
60.68,2990
60.745,3043
60.81,3135
60.875,3155
60.94,2994
61.005,2913
61.07,2906
61.135,2883
61.2,2857
61.265,2879
61.33,2905
61.395,2898
61.46,2967
61.525,2943
61.59,2989
61.655,3002
61.72,3090
61.785,3344
61.85,3521
61.915,3328
61.98,3193
62.045,3056
62.11,2909
62.175,2921
62.24,2933
62.305,2942
62.37,2923
62.435,2951
62.5,2953
62.565,2972
62.63,2988
62.695,3028
62.76,3094
62.825,3157
62.89,3230
62.955,3324
63.02,3444
63.085,3712
63.15,4025
63.215,4563
63.28,6180
63.345,9528
63.41,14098
63.475,9008
63.54,6083
63.605,4570
63.67,4038
63.735,3702
63.8,3620
63.865,3498
63.93,3527
63.995,3474
64.06,3499
64.125,3598
64.19,3725
64.255,4109
64.32,4807
64.385,6487
64.45,8756
64.515,6465
64.58,4774
64.645,4337
64.71,4119
64.775,4074
64.84,4239
64.905,4416
64.97,4640
65.035,5145
65.1,5794
65.165,5912
65.23,6283
65.295,8117
65.36,12102
65.425,15035
65.49,9455
65.555,8134
65.62,9039
65.685,12418
65.75,19222
65.815,33695
65.88,35356
65.945,19989
66.01,12420
66.075,8852
66.14,6600
66.205,5610
66.27,5081
66.335,4569
66.4,4312
66.465,4076
66.53,3839
66.595,3857
66.66,3850
66.725,3977
66.79,4612
66.855,5427
66.92,4284
66.985,3615
67.05,3439
67.115,3433
67.18,3370
67.245,3356
67.31,3319
67.375,3464
67.44,3624
67.505,3565
67.57,3336
67.635,3190
67.7,3132
67.765,3178
67.83,3213
67.895,3193
67.96,3246
68.025,3285
68.09,3339
68.155,3575
68.22,3851
68.285,4375
68.35,5506
68.415,5435
68.48,4250
68.545,4001
68.61,3983
68.675,4199
68.74,4514
68.805,5225
68.87,6616
68.935,9764
69,15049
69.065,18006
69.13,13069
69.195,7421
69.26,5500
69.325,4777
69.39,4638
69.455,4345
69.52,3811
69.585,3627
69.65,3536
69.715,3444
69.78,3391
69.845,3460
69.91,3411
69.975,3500
70.04,3522
70.105,3465
70.17,3554
70.235,3732
70.3,4036
70.365,4572
70.43,5604
70.495,6087
70.56,6730
70.625,6674
70.69,4688
70.755,4181
70.82,3890
70.885,3718
70.95,3625
71.015,3698
71.08,3884
71.145,3892
71.21,3952
71.275,4614
71.34,6057
71.405,8658
71.47,6124
71.535,4254
71.6,3720
71.665,3499
71.73,3416
71.795,3477
71.86,3520
71.925,3526
71.99,3440
72.055,3258
72.12,3130
72.185,3116
72.25,3121
72.315,3122
72.38,3207
72.445,3232
72.51,3324
72.575,3327
72.64,3353
72.705,3341
72.77,3438
72.835,3574
72.9,3846
72.965,4159
73.03,4972
73.095,6810
73.16,9157
73.225,6923
73.29,6301
73.355,7083
73.42,10025
73.485,12802
73.55,7987
73.615,5316
73.68,4569
73.745,4172
73.81,3896
73.875,3895
73.94,3784
74.005,3815
74.07,4017
74.135,4272
74.2,4924
74.265,6578
74.33,9836
74.395,8945
74.46,5492
74.525,4506
74.59,4149
74.655,3965
74.72,3670
74.785,3618
74.85,3579
74.915,3589
74.98,3789
75.045,3789
75.11,3686
75.175,3703
75.24,3891
75.305,4162
75.37,4888
75.435,6339
75.5,9613
75.565,11048
75.63,7204
75.695,5696
75.76,5520
75.825,5924
75.89,5225
75.955,4731
76.02,5204
76.085,5733
76.15,6273
76.215,7641
76.28,7505
76.345,7588
76.41,6181
76.475,4584
76.54,3972
76.605,3726
76.67,3663
76.735,3558
76.8,3441
76.865,3471
76.93,3457
76.995,3502
77.06,3562
77.125,3922
77.19,4421
77.255,5394
77.32,5048
77.385,4130
77.45,3866
77.515,3794
77.58,3658
77.645,3633
77.71,3647
77.775,3718
77.84,3998
77.905,4710
77.97,5211
78.035,4404
78.1,4083
78.165,4129
78.23,4325
78.295,4789
78.36,5588
78.425,7321
78.49,11486
78.555,16652
78.62,11121
78.685,8082
78.75,7333
78.815,5394
78.88,4462
78.945,4094
79.01,3897
79.075,3768
79.14,3669
79.205,3593
79.27,3592
79.335,3576
79.4,3583
79.465,3609
79.53,3565
79.595,3660
79.66,3726
79.725,3838
79.79,3950
79.855,4143
79.92,4535
79.985,5096
80.05,6242
80.115,8591
80.18,11145
80.245,10893
80.31,10643
80.375,13902
80.44,14014
80.505,13573
80.57,14444
80.635,9041
80.7,6260
80.765,5277
80.83,4627
80.895,4298
80.96,4083
81.025,3883
81.09,3840
81.155,3728
81.22,3727
81.285,3813
81.35,4000
81.415,3932
81.48,4023
81.545,4536
81.61,5341
81.675,5787
81.74,4500
81.805,3831
81.87,3670
81.935,3598
82,3494
82.065,3639
82.13,3867
82.195,4488
82.26,5555
82.325,4705
82.39,3939
82.455,3882
82.52,4185
82.585,4258
82.65,4038
82.715,4398
82.78,4806
82.845,4341
82.91,3701
82.975,3500
83.04,3346
83.105,3396
83.17,3336
83.235,3395
83.3,3557
83.365,3749
83.43,4261
83.495,5317
83.56,6634
83.625,6694
83.69,6755
83.755,4785
83.82,3925
83.885,3597
83.95,3499
84.015,3372
84.08,3263
84.145,3153
84.21,3071
84.275,3045
84.34,3034
84.405,3027
84.47,2959
84.535,2943
84.6,2930
84.665,2961
84.73,2938
84.795,2927
84.86,2915
84.925,2974
84.99,2899
85.055,2977
85.12,2920
85.185,2919
85.25,2942
85.315,2954
85.38,2985
85.445,3002
85.51,3023
85.575,3060
85.64,3027
85.705,3113
85.77,3120
85.835,3188
85.9,3357
85.965,3349
86.03,3181
86.095,2999
86.16,3064
86.225,3047
86.29,3174
86.355,3287
86.42,3441
86.485,3366
86.55,3171
86.615,3092
86.68,3124
86.745,3131
86.81,3154
86.875,3154
86.94,3157
87.005,3238
87.07,3328
87.135,3546
87.2,3644
87.265,3955
87.33,4024
87.395,3898
87.46,4150
87.525,4558
87.59,4417
87.655,4504
87.72,4633
87.785,5182
87.85,6295
87.915,6952
87.98,6639
88.045,5244
88.11,4820
88.175,5098
88.24,5472
88.305,4598
88.37,4024
88.435,3787
88.5,3728
88.565,3759
88.63,3878
88.695,4211
88.76,5053
88.825,5370
88.89,4779
88.955,4700
89.02,4448
89.085,4381
89.15,4841
89.215,5449
89.28,4870
89.345,4132
89.41,3950
89.475,3821
89.54,3592
89.605,3430
89.67,3336
89.735,3242
89.8,3241
89.865,3230
89.93,3184
89.995,3105
90.06,3074
90.125,3087
90.19,3106
90.255,3095
90.32,3125
90.385,3206
90.45,3235
90.515,3322
90.58,3385
90.645,3541
90.71,3487
90.775,3345
90.84,3216
90.905,3329
90.97,3294
91.035,3391
91.1,3410
91.165,3521
91.23,3552
91.295,3737
91.36,4046
91.425,4561
91.49,5946
91.555,7406
91.62,6497
91.685,5037
91.75,4344
91.815,4180
91.88,4334
91.945,4662
92.01,5626
92.075,7224
92.14,8208
92.205,7093
92.27,5098
92.335,4263
92.4,3958
92.465,3836
92.53,3702
92.595,3636
92.66,3571
92.725,3495
92.79,3533
92.855,3614
92.92,3828
92.985,3880
93.05,3830
93.115,3568
93.18,3466
93.245,3358
93.31,3358
93.375,3415
93.44,3526
93.505,3579
93.57,3562
93.635,3597
93.7,3659
93.765,3789
93.83,3994
93.895,4491
93.96,5325
94.025,7001
94.09,9203
94.155,8088
94.22,6293
94.285,4797
94.35,4232
94.415,3938
94.48,3771
94.545,3702
94.61,3620
94.675,3569
94.74,3628
94.805,3592
94.87,3532
94.935,3637
95,3794
95.065,4063
95.13,4482
95.195,4848
95.26,5355
95.325,6315
95.39,5542
95.455,4804
95.52,4474
95.585,4004
95.65,3739
95.715,3620
95.78,3566
95.845,3509
95.91,3493
95.975,3549
96.04,3561
96.105,3672
96.17,3829
96.235,4306
96.3,4967
96.365,4683
96.43,4104
96.495,3847
96.56,3727
96.625,3828
96.69,3960
96.755,4110
96.82,4637
96.885,5392
96.95,5455
97.015,4922
97.08,4933
97.145,5720
97.21,6816
97.275,6070
97.34,5310
97.405,5319
97.47,5685
97.535,5424
97.6,5592
97.665,5295
97.73,5170
97.795,5708
97.86,7279
97.925,7826
97.99,6128
98.055,5397
98.12,5014
98.185,5099
98.25,4825
98.315,4492
98.38,4435
98.445,4768
98.51,4738
98.575,4219
98.64,3827
98.705,3746
98.77,3685
98.81,3688