File: data/xrd_icdd_PDF/00-069-0819 (PD3).csv
5,1424
5.075,1430
5.15,1430
5.225,1370
5.3,1320
5.375,1405
5.45,1305
5.525,1302
5.6,1309
5.675,1294
5.75,1228
5.82499,1282
5.89999,1276
5.97499,1232
6.04999,1198
6.12499,1209
6.19999,1216
6.27499,1268
6.34999,1222
6.42499,1165
6.49999,1210
6.57499,1159
6.64999,1156
6.72499,1203
6.79999,1134
6.87499,1136
6.94999,1171
7.02499,1155
7.09999,1230
7.17499,1198
7.24998,1192
7.32498,1164
7.39998,1161
7.47498,1149
7.54998,1130
7.62498,1099
7.69998,1169
7.77498,1105
7.84998,1130
7.92498,1139
7.99998,1190
8.07498,1087
8.14998,1121
8.22498,1126
8.29998,1158
8.37498,1154
8.44998,1097
8.52498,1134
8.59998,1167
8.67498,1172
8.74997,1140
8.82497,1112
8.89997,1104
8.97497,1147
9.04997,1094
9.12497,1157
9.19997,1132
9.27497,1076
9.34997,1118
9.42497,1093
9.49997,1087
9.57497,1064
9.64997,1107
9.72497,1106
9.79997,1123
9.87497,1086
9.94997,1095
10.02497,1074
10.09997,1085
10.17497,1078
10.24996,1092
10.32496,1100
10.39996,1130
10.47496,1087
10.54996,1108
10.62496,1091
10.69996,1110
10.77496,1077
10.84996,1118
10.92496,1097
10.99996,1142
11.07496,1083
11.14996,1092
11.22496,1112
11.29996,1170
11.37496,1112
11.44996,1132
11.52496,1105
11.59996,1120
11.67496,1129
11.74995,1070
11.82495,1115
11.89995,1124
11.97495,1114
12.04995,1122
12.12495,1130
12.19995,1127
12.27495,1114
12.34995,1151
12.42495,1084
12.49995,1155
12.57495,1138
12.64995,1086
12.72495,1151
12.79995,1125
12.87495,1138
12.94995,1121
13.02495,1152
13.09995,1132
13.17495,1155
13.24995,1121
13.32494,1054
13.39994,1131
13.47494,1121
13.54994,1134
13.62494,1136
13.69994,1072
13.77494,1095
13.84994,1111
13.92494,1116
13.99994,1084
14.07494,1141
14.14994,1099
14.22494,1120
14.29994,1179
14.37494,1109
14.44994,1107
14.52494,1152
14.59994,1179
14.67494,1112
14.74994,1138
14.82493,1147
14.89993,1144
14.97493,1129
15.04993,1160
15.12493,1196
15.19993,1148
15.27493,1164
15.34993,1156
15.42493,1200
15.49993,1180
15.57493,1199
15.64993,1256
15.72493,1173
15.79993,1180
15.87493,1178
15.94993,1171
16.02493,1209
16.09993,1208
16.17493,1218
16.24993,1134
16.32492,1194
16.39992,1176
16.47492,1178
16.54992,1201
16.62492,1232
16.69992,1223
16.77492,1192
16.84992,1185
16.92492,1202
16.99992,1259
17.07492,1241
17.14992,1196
17.22492,1190
17.29992,1246
17.37492,1221
17.44992,1220
17.52492,1242
17.59992,1226
17.67492,1285
17.74992,1286
17.82491,1243
17.89991,1236
17.97491,1257
18.04991,1264
18.12491,1260
18.19991,1282
18.27491,1285
18.34991,1260
18.42491,1253
18.49991,1299
18.57491,1250
18.64991,1286
18.72491,1313
18.79991,1306
18.87491,1293
18.94991,1296
19.02491,1298
19.09991,1370
19.17491,1338
19.2499,1365
19.3249,1339
19.3999,1354
19.4749,1293
19.5499,1352
19.6249,1382
19.6999,1326
19.7749,1355
19.8499,1382
19.9249,1384
19.9999,1401
20.0749,1355
20.1499,1379
20.2249,1332
20.2999,1422
20.3749,1453
20.4499,1442
20.5249,1417
20.5999,1407
20.6749,1415
20.74989,1464
20.82489,1496
20.89989,1470
20.97489,1381
21.04989,1452
21.12489,1466
21.19989,1489
21.27489,1518
21.34989,1549
21.42489,1595
21.49989,1564
21.57489,1604
21.64989,1615
21.72489,1810
21.79989,2037
21.87489,2537
21.94989,4358
22.02489,9384
22.09989,6875
22.17489,2856
22.24988,2208
22.32488,2038
22.39988,2253
22.47488,2944
22.54988,5674
22.62488,13654
22.69988,7973
22.77488,3037
22.84988,2227
22.92488,1919
22.99988,1779
23.07488,1712
23.14988,1628
23.22488,1592
23.29988,1581
23.37488,1541
23.44988,1580
23.52488,1598
23.59988,1550
23.67488,1602
23.74987,1550
23.82487,1576
23.89987,1575
23.97487,1532
24.04987,1519
24.12487,1546
24.19987,1537
24.27487,1548
24.34987,1557
24.42487,1536
24.49987,1552
24.57487,1539
24.64987,1585
24.72487,1566
24.79987,1507
24.87487,1497
24.94987,1484
25.02487,1550
25.09987,1604
25.17487,1570
25.24986,1510
25.32486,1490
25.39986,1526
25.47486,1539
25.54986,1488
25.62486,1486
25.69986,1497
25.77486,1446
25.84986,1548
25.92486,1527
25.99986,1513
26.07486,1539
26.14986,1450
26.22486,1490
26.29986,1486
26.37486,1537
26.44986,1549
26.52486,1477
26.59986,1482
26.67486,1468
26.74986,1507
26.82485,1535
26.89985,1468
26.97485,1496
27.04985,1427
27.12485,1526
27.19985,1498
27.27485,1458
27.34985,1465
27.42485,1504
27.49985,1473
27.57485,1492
27.64985,1472
27.72485,1456
27.79985,1507
27.87485,1541
27.94985,1504
28.02485,1625
28.09985,1660
28.17485,1921
28.24985,2396
28.32484,4541
28.39984,6238
28.47484,2780
28.54984,1851
28.62484,1582
28.69984,1533
28.77484,1537
28.84984,1506
28.92484,1433
28.99984,1464
29.07484,1345
29.14984,1392
29.22484,1392
29.29984,1463
29.37484,1389
29.44984,1396
29.52484,1310
29.59984,1332
29.67484,1402
29.74984,1345
29.82483,1370
29.89983,1359
29.97483,1326
30.04983,1339
30.12483,1349
30.19983,1357
30.27483,1377
30.34983,1343
30.42483,1307
30.49983,1372
30.57483,1368
30.64983,1314
30.72483,1330
30.79983,1300
30.87483,1304
30.94983,1318
31.02483,1356
31.09983,1328
31.17483,1346
31.24983,1271
31.32482,1316
31.39982,1331
31.47482,1323
31.54982,1317
31.62482,1299
31.69982,1299
31.77482,1286
31.84982,1322
31.92482,1265
31.99982,1281
32.07482,1299
32.14982,1329
32.22482,1287
32.29982,1339
32.37482,1294
32.44982,1376
32.52482,1391
32.59982,1476
32.67482,1574
32.74981,1720
32.82481,1899
32.89981,2366
32.97481,3454
33.04981,6015
33.12481,15728
33.19981,41828
33.27481,25766
33.34981,8555
33.42481,4429
33.49981,2879
33.57481,2356
33.64981,2004
33.72481,2033
33.79981,2154
33.87481,2700
33.94981,3838
34.02481,6938
34.09981,16819
34.17481,22469
34.24981,6780
34.3248,3153
34.3998,2053
34.4748,1718
34.5498,1540
34.6248,1393
34.6998,1401
34.7748,1344
34.8498,1293
34.9248,1295
34.9998,1328
35.0748,1264
35.1498,1380
35.2248,1502
35.2998,1527
35.3748,1817
35.4498,2442
35.5248,4311
35.5998,10930
35.6748,37588
35.74979,51212
35.82479,12196
35.89979,4364
35.97479,2615
36.04979,1849
36.12479,1577
36.19979,1349
36.27479,1337
36.34979,1223
36.42479,1432
36.49979,1370
36.57479,1272
36.64979,1264
36.72479,1343
36.79979,1447
36.87479,1808
36.94979,2424
37.02479,4302
37.09979,8964
37.17479,5216
37.24979,2639
37.32478,2232
37.39978,2294
37.47478,2590
37.54978,3525
37.62478,5791
37.69978,12233
37.77478,33764
37.84978,78372
37.92478,41001
37.99978,13001
38.07478,6144
38.14978,3854
38.22478,2953
38.29978,2656
38.37478,2969
38.44978,3778
38.52478,6348
38.59978,13365
38.67478,29954
38.74977,19503
38.82477,6026
38.89977,2934
38.97477,1986
39.04977,1627
39.12477,1393
39.19977,1208
39.27477,1121
39.34977,1073
39.42477,1076
39.49977,1010
39.57477,962
39.64977,902
39.72477,988
39.79977,974
39.87477,936
39.94977,897
40.02477,865
40.09977,916
40.17477,905
40.24976,889
40.32476,931
40.39976,885
40.47476,876
40.54976,875
40.62476,850
40.69976,907
40.77476,910
40.84976,858
40.92476,898
40.99976,910
41.07476,956
41.14976,1025
41.22476,1211
41.29976,1754
41.37476,2558
41.44976,1661
41.52476,1161
41.59976,974
41.67476,947
41.74976,951
41.82475,965
41.89975,977
41.97475,1032
42.04975,1125
42.12475,1336
42.19975,1896
42.27475,3502
42.34975,7907
42.42475,7739
42.49975,2861
42.57475,1523
42.64975,1232
42.72475,1037
42.79975,899
42.87475,916
42.94975,873
43.02475,824
43.09975,858
43.17475,851
43.24974,830
43.32474,829
43.39974,803
43.47474,789
43.54974,810
43.62474,768
43.69974,800
43.77474,816
43.84974,770
43.92474,771
43.99974,827
44.07474,783
44.14974,819
44.22474,788
44.29974,800
44.37474,785
44.44974,810
44.52474,768
44.59974,778
44.67474,769
44.74974,769
44.82473,778
44.89973,783
44.97473,827
45.04973,796
45.12473,825
45.19973,745
45.27473,802
45.34973,834
45.42473,819
45.49973,823
45.57473,804
45.64973,821
45.72473,803
45.79973,794
45.87473,812
45.94973,789
46.02473,798
46.09973,791
46.17473,819
46.24972,872
46.32472,892
46.39972,960
46.47472,1161
46.54972,1583
46.62472,2955
46.69972,3613
46.77472,2382
46.84972,2206
46.92472,3506
46.99972,4457
47.07472,2413
47.14972,1405
47.22472,1120
47.29972,945
47.37472,854
47.44972,849
47.52472,836
47.59972,806
47.67472,802
47.74972,818
47.82471,791
47.89971,775
47.97471,837
48.04971,781
48.12471,767
48.19971,798
48.27471,752
48.34971,796
48.42471,807
48.49971,776
48.57471,865
48.64971,830
48.72471,845
48.79971,891
48.87471,877
48.94971,896
49.02471,989
49.09971,1042
49.17471,1188
49.2497,1376
49.3247,1821
49.3997,2836
49.4747,5743
49.5497,13441
49.6247,12548
49.6997,5045
49.7747,2629
49.8497,1851
49.9247,1714
49.9997,1739
50.0747,2247
50.1497,3544
50.2247,7471
50.2997,7115
50.3747,3074
50.4497,1688
50.5247,1289
50.5997,1072
50.6747,936
50.7497,929
50.82469,834
50.89969,888
50.97469,836
51.04969,811
51.12469,806
51.19969,792
51.27469,807
51.34969,805
51.42469,763
51.49969,766
51.57469,763
51.64969,811
51.72469,773
51.79969,767
51.87469,752
51.94969,871
52.02469,851
52.09969,954
52.17469,1054
52.24968,1255
52.32468,1758
52.39968,3263
52.47468,5028
52.54968,2706
52.62468,1430
52.69968,1086
52.77468,896
52.84968,841
52.92468,778
52.99968,809
53.07468,759
53.14968,721
53.22468,779
53.29968,750
53.37468,743
53.44968,752
53.52468,735
53.59968,742
53.67468,715
53.74968,733
53.82467,776
53.89967,765
53.97467,787
54.04967,751
54.12467,730
54.19967,737
54.27467,809
54.34967,907
54.42467,1121
54.49967,915
54.57467,756
54.64967,760
54.72467,751
54.79967,727
54.87467,721
54.94967,741
55.02467,746
55.09967,740
55.17467,737
55.24967,770
55.32466,767
55.39966,752
55.47466,754
55.54966,714
55.62466,771
55.69966,751
55.77466,746
55.84966,806
55.92466,848
55.99966,880
56.07466,1036
56.14966,1511
56.22466,1283
56.29966,955
56.37466,854
56.44966,768
56.52466,797
56.59966,836
56.67466,859
56.74965,1018
56.82465,1422
56.89965,1643
56.97465,1138
57.04965,961
57.12465,892
57.19965,895
57.27465,925
57.34965,879
57.42465,1075
57.49965,1341
57.57465,1792
57.64965,2851
57.72465,2519
57.79965,1453
57.87465,1096
57.94965,962
58.02465,887
58.09965,907
58.17465,979
58.24965,933
58.32464,1063
58.39964,1166
58.47464,1407
58.54964,2054
58.62464,3797
58.69964,8205
58.77464,10559
58.84964,6219
58.92464,3392
58.99964,2127
59.07464,1565
59.14964,1372
59.22464,1279
59.29964,1549
59.37464,1781
59.44964,1362
59.52464,1133
59.59964,1099
59.67464,1165
59.74963,1415
59.82463,1424
59.89963,1326
59.97463,1581
60.04963,2194
60.12463,3221
60.19963,3170
60.27463,3062
60.34963,4187
60.42463,6968
60.49963,14220
60.57463,21120
60.64963,9909
60.72463,4032
60.79963,2282
60.87463,1549
60.94963,1322
61.02463,1070
61.09963,1016
61.17463,985
61.24963,930
61.32462,891
61.39962,899
61.47462,799
61.54962,813
61.62462,837
61.69962,836
61.77462,791
61.84962,776
61.92462,757
61.99962,794
62.07462,774
62.14962,774
62.22462,799
62.29962,800
62.37462,779
62.44962,821
62.52462,767
62.59962,758
62.67462,773
62.74961,785
62.82461,802
62.89961,745
62.97461,790
63.04961,797
63.12461,762
63.19961,822
63.27461,797
63.34961,772
63.42461,824
63.49961,835
63.57461,916
63.64961,847
63.72461,793
63.79961,807
63.87461,784
63.94961,838
64.02461,757
64.09961,774
64.17461,856
64.24961,812
64.3246,811
64.3996,831
64.4746,869
64.5496,857
64.6246,940
64.6996,1064
64.7746,981
64.8496,939
64.9246,984
64.9996,1089
65.0746,1212
65.1496,1358
65.2246,1669
65.2996,2314
65.3746,3519
65.4496,6144
65.5246,12426
65.5996,21697
65.6746,14511
65.74959,6690
65.82459,3852
65.89959,3071
65.97459,3296
66.04959,4632
66.12459,7853
66.19959,9211
66.27459,4666
66.34959,2516
66.42459,1699
66.49959,1260
66.57459,1108
66.64959,1036
66.72459,981
66.79959,1029
66.87459,1002
66.94959,902
67.02459,815
67.09959,853
67.17459,791
67.24958,806
67.32458,836
67.39958,798
67.47458,823
67.54958,773
67.62458,815
67.69958,789
67.77458,774
67.84958,789
67.92458,860
67.99958,848
68.07458,966
68.14958,996
68.22458,1116
68.29958,1562
68.37458,2065
68.44958,1609
68.52458,1136
68.59958,994
68.67458,873
68.74957,859
68.82457,794
68.89957,868
68.97457,794
69.04957,857
69.12457,790
69.19957,841
69.27457,874
69.34957,879
69.42457,956
69.49957,1132
69.57457,1480
69.64957,2252
69.72457,3731
69.79957,3308
69.87457,2056
69.94957,1438
70.02457,1219
70.09957,1191
70.17457,1074
70.24957,1165
70.32456,1197
70.39956,1416
70.47456,1926
70.54956,2858
70.62456,5401
70.69956,8393
70.77456,6427
70.84956,3717
70.92456,2249
70.99956,1557
71.07456,1307
71.14956,1125
71.22456,1006
71.29956,986
71.37456,1022
71.44956,1014
71.52456,1060
71.59956,1104
71.67456,1161
71.74956,1387
71.82455,1617
71.89955,2234
71.97455,2724
72.04955,2981
72.12455,3978
72.19955,6183
72.27455,10686
72.34955,16337
72.42455,11783
72.49955,8611
72.57455,10150
72.64955,8510
72.72455,4891
72.79955,2965
72.87455,2370
72.94955,1840
73.02455,1432
73.09955,1153
73.17455,1113
73.24954,953
73.32454,955
73.39954,902
73.47454,927
73.54954,897
73.62454,923
73.69954,952
73.77454,942
73.84954,909
73.92454,870
73.99954,847
74.07454,853
74.14954,868
74.22454,913
74.29954,984
74.37454,1102
74.44954,1299
74.52454,1537
74.59954,2044
74.67454,3225
74.74953,5005
74.82453,3920
74.89953,2132
74.97453,1321
75.04953,1113
75.12453,880
75.19953,904
75.27453,887
75.34953,888
75.42453,984
75.49953,1247
75.57453,1767
75.64953,2829
75.72453,3153
75.79953,1860
75.87453,1155
75.94953,933
76.02453,815
76.09953,786
76.17453,752
76.24953,716
76.32452,715
76.39952,805
76.47452,839
76.54952,879
76.62452,852
76.69952,773
76.77452,702
76.84952,715
76.92452,690
76.99952,688
77.07452,666
77.14952,663
77.22452,717
77.29952,668
77.37452,684
77.44952,684
77.52452,711
77.59952,674
77.67452,689
77.74952,661
77.82451,716
77.89951,705
77.97451,716
78.04951,687
78.12451,744
78.19951,743
78.27451,745
78.34951,780
78.42451,795
78.49951,735
78.57451,734
78.64951,704
78.72451,700
78.79951,667
78.87451,684
78.94951,700
79.02451,715
79.09951,686
79.17451,647
79.2495,696
79.3245,653
79.3995,674
79.4745,639
79.5495,699
79.6245,694
79.6995,764
79.7745,770
79.8495,868
79.9245,1145
79.9995,1339
80.0745,1095
80.1495,867
80.2245,793
80.2995,786
80.3745,814
80.4495,849
80.5245,884
80.5995,955
80.6745,1213
80.74949,1642
80.82449,2421
80.89949,3606
80.97449,3116
81.04949,2015
81.12449,1417
81.19949,1088
81.27449,890
81.34949,874
81.42449,747
81.49949,730
81.57449,699
81.64949,717
81.72449,640
81.79949,690
81.87449,654
81.94949,663
82.02449,687
82.09949,672
82.17449,653
82.24949,640
82.32448,686
82.39948,696
82.47448,705
82.54948,716
82.62448,767
82.69948,791
82.77448,847
82.84948,990
82.92448,1222
82.99948,1518
83.07448,1321
83.14948,947
83.22448,776
83.29948,729
83.37448,678
83.44948,706
83.52448,710
83.59948,693
83.67448,675
83.74948,661
83.82447,676
83.89947,637
83.97447,681
84.04947,644
84.12447,648
84.19947,636
84.27447,682
84.34947,679
84.42447,709
84.49947,713
84.57447,797
84.64947,849
84.72447,1047
84.79947,968
84.87447,895
84.94947,931
85.02447,1028
85.09947,1414
85.17447,2008
85.24947,1946
85.32446,1409
85.39946,1113
85.47446,1039
85.54946,1147
85.62446,1355
85.69946,1713
85.77446,1655
85.84946,1183
85.92446,872
85.99946,810
86.07446,800
86.14946,753
86.22446,671
86.29946,687
86.37446,637
86.44946,651
86.52446,656
86.59946,629
86.67446,617
86.74945,630
86.82445,626
86.89945,596
86.97445,635
87.04945,655
87.12445,643
87.19945,694
87.27445,733
87.34945,795
87.42445,907
87.49945,863
87.57445,797
87.64945,680
87.72445,709
87.79945,662
87.87445,655
87.94945,587
88.02445,623
88.09945,605
88.17445,592
88.24944,577
88.32444,639
88.39944,606
88.47444,629
88.54944,609
88.62444,647
88.69944,639
88.77444,686
88.84944,652
88.92444,789
88.99944,936
89.07444,1011
89.14944,855
89.22444,750
89.29944,697
89.37444,609
89.44944,621
89.52444,595
89.59944,635
89.67444,580
89.74944,604
89.82443,616
89.89943,601
89.97443,604
90.04943,612
90.12443,616
90.19943,622
90.27443,624
90.34943,703
90.42443,772
90.49943,705
90.57443,678
90.64943,628
90.72443,612
90.79943,587
90.87443,555
90.94943,626
91.02443,591
91.09943,561
91.17443,578
91.24943,555
91.32442,556
91.39942,632
91.47442,611
91.54942,585
91.62442,637
91.69942,638
91.77442,596
91.84942,614
91.92442,587
91.99942,586
92.07442,611
92.14942,636
92.22442,615
92.29942,618
92.37442,637
92.44942,586
92.52442,607
92.59942,639
92.67442,649
92.74941,650
92.82441,579
92.89941,637
92.97441,591
93.04941,574
93.12441,648
93.19941,583
93.27441,678
93.34941,661
93.42441,676
93.49941,693
93.57441,679
93.64941,738
93.72441,795
93.79941,927
93.87441,974
93.94941,1000
94.02441,1140
94.09941,1211
94.17441,1539
94.2494,2105
94.3244,3156
94.3994,4772
94.4744,5076
94.5494,3652
94.6244,2509
94.6994,1879
94.7744,1498
94.8494,1189
94.9244,1020
94.9994,907
95.0744,808
95.1494,805
95.2244,765
95.2994,733
95.3744,719
95.4494,716
95.5244,716
95.5994,718
95.6744,716
95.7494,735
95.82439,799
95.89939,802
95.97439,870
96.04939,1031
96.12439,1208
96.19939,1431
96.27439,1648
96.34939,2018
96.42439,2588
96.49939,3466
96.57439,3304
96.64939,2199
96.72439,1541
96.79939,1241
96.87439,1030
96.94939,984
97.02439,933
97.09939,1047
97.17439,1258
97.24939,1408
97.32438,1253
97.39938,1024
97.47438,960
97.54938,900
97.62438,783
97.69938,741
97.77438,734
97.84938,709
97.92438,759
97.99938,763
98.07438,801
98.14938,793
98.22438,941
98.29938,943
98.37438,870
98.44938,860
98.52438,965
98.59938,955
98.67438,916
98.74938,832
98.82437,802
98.89937,806
98.97437,728
99.04937,770
99.12437,751
99.19937,748
99.27437,813
99.34937,796
99.42437,915
99.49937,959
99.57437,1055
99.64937,1322
99.72437,1686
99.79937,2214
99.87437,3360
99.94937,4178
99.99437,4206