File: data/xrd_icdd_PDF/00-067-0138 (PD3).csv
9.65786,213.28
9.75786,213.143
9.85786,210.4138
9.95786,205.589
10.05786,214.859
10.15786,211.79
10.25786,210.9341
10.35786,209.677
10.45786,204.889
10.55786,203.061
10.65786,201.653
10.75786,206.406
10.85786,207.766
10.95786,203.439
11.05786,205.03
11.15786,200.882
11.25786,201.87
11.35786,205.533
11.45786,208.111
11.55786,205.734
11.65786,195.569
11.75786,197.301
11.85786,196.924
11.95786,198.073
12.05786,198.16
12.15786,196.699
12.25786,200.495
12.35786,189.142
12.45786,192.455
12.55786,195.749
12.65786,200.122
12.75786,196.587
12.85786,197.228
12.95786,199.471
13.05786,204.6555
13.15786,198.025
13.25786,198.676
13.35786,193.189
13.45786,193.428
13.55786,189.626
13.65786,187.355
13.75786,194.075
13.85786,192.516
13.95786,195.28
14.05786,189.74
14.15786,193.963
14.25786,190.724
14.35786,188.7719
14.45786,187.854
14.55786,187.302
14.65786,191.48
14.75786,196.008
14.85786,187.123
14.95786,187.516
15.05786,188.582
15.15786,187.864
15.25786,183.613
15.35786,180.036
15.45786,186.261
15.55786,188.096
15.65786,184.745
15.75786,186.465
15.85786,187.551
15.95786,185.57
16.05786,182.183
16.15786,183.501
16.25786,182.496
16.35786,184.004
16.45786,195.746
16.55786,191.388
16.65786,184.124
16.75786,192.112
16.85786,191.098
16.95786,191.178
17.05786,184.065
17.15786,183.6379
17.25786,192.839
17.35786,191.097
17.45786,184.628
17.55786,184.104
17.65786,184.677
17.75786,187.54
17.85786,190.484
17.95786,191.756
18.05786,197.371
18.15786,195.458
18.25786,207.194
18.35786,228.79
18.45786,252.885
18.55786,286.309
18.65786,296.36
18.75786,294.4321
18.85786,260.231
18.95786,236.835
19.05786,213.789
19.15786,204.04
19.25786,195.835
19.35786,192.548
19.45786,187.61
19.55786,181.364
19.65786,182.554
19.75786,183.183
19.85786,177.17
19.95786,178.824
20.05786,175.5199
20.15786,181.367
20.25786,173.5035
20.35786,173.1507
20.45786,176.232
20.55786,181.0078
20.65786,177.775
20.75786,179.114
20.85786,178.188
20.95786,173.841
21.05786,178.196
21.15786,184.085
21.25786,188.217
21.35786,181.489
21.45786,179.4008
21.55786,176.638
21.65786,175.808
21.75786,181.007
21.85786,182.032
21.95786,179.844
22.05786,175.072
22.15786,175.154
22.25786,180.6793
22.35786,173.764
22.45786,172.611
22.55786,179.59
22.65786,180.3787
22.75786,174.161
22.85786,180.0318
22.95786,173.077
23.05786,172.365
23.15786,174.422
23.25786,179.129
23.35786,170.586
23.45786,170.885
23.55786,175.325
23.65786,173.882
23.75786,173.913
23.85786,171.136
23.95786,172.693
24.05786,176.093
24.15786,177.2
24.25786,179.65
24.35786,174.876
24.45786,174.035
24.55786,177.081
24.65786,171.677
24.75786,173.51
24.85786,176.0457
24.95786,170.723
25.05786,167.203
25.15786,172.69
25.25786,176.794
25.35786,171.978
25.45786,173.16
25.55786,172.818
25.65786,169.924
25.75786,166.753
25.85786,166.85
25.95786,173.575
26.05786,162.153
26.15786,171.287
26.25786,171.791
26.35786,171.4082
26.45786,167.502
26.55786,166.797
26.65786,172.092
26.75786,168.843
26.85786,168.028
26.95786,172.0476
27.05786,176.282
27.15786,173.098
27.25786,169.282
27.35786,175.142
27.45786,178.86
27.55786,176.356
27.65786,173.711
27.75786,189.698
27.85786,196.392
27.95786,198.31
28.05786,205.008
28.15786,226.2402
28.25786,248.8289
28.35786,309.82
28.45786,408.855
28.55786,682.4469
28.65786,1101.21
28.75786,1346.16
28.85786,1278.46
28.95786,1052.11
29.05786,787.8523
29.15786,585.275
29.25786,421.8029
29.35786,314.017
29.45786,245.869
29.55786,200.431
29.65786,185.482
29.75786,179.874
29.85786,173.319
29.95786,165.417
30.05786,168.084
30.15786,164.992
30.25786,161.339
30.35786,164.945
30.45786,163.701
30.55786,163.816
30.65786,159.885
30.75786,161.573
30.85786,165.071
30.95786,164.983
31.05786,165.117
31.15786,165.652
31.25786,174.48
31.35786,180.277
31.45786,186.282
31.55786,188.544
31.65786,181.615
31.75786,176.839
31.85786,164.727
31.95786,159.901
32.05786,155.513
32.15786,162.503
32.25786,163.674
32.35786,158.012
32.45786,157.88
32.55786,156.991
32.65786,152.223
32.75786,154.825
32.85786,157.805
32.95786,160.556
33.05786,160.949
33.15786,167.058
33.25786,166.939
33.35786,163.246
33.45786,161.369
33.55786,170.528
33.65786,168.617
33.75786,170.489
33.85786,189.157
33.95786,198.029
34.05786,256.6727
34.15786,313.934
34.25786,319.551
34.35786,286.467
34.45786,232.88
34.55786,196.105
34.65786,171.746
34.75786,163.368
34.85786,159.79
34.95786,153.626
35.05786,153.672
35.15786,157.489
35.25786,159.268
35.35786,158.62
35.45786,161.841
35.55786,160.795
35.65786,161.233
35.75786,155.175
35.85786,157.374
35.95786,159.602
36.05786,159.4
36.15786,157.883
36.25786,156.96
36.35786,164.0033
36.45786,158.1662
36.55786,157.982
36.65786,160.6771
36.75786,161.5975
36.85786,163.156
36.95786,164.261
37.05786,160.148
37.15786,168.28
37.25786,173.863
37.35786,180.039
37.45786,193.229
37.55786,249.258
37.65786,361.777
37.75786,491.767
37.85786,516.448
37.95786,422.195
38.05786,311.146
38.15786,236.236
38.25786,197.922
38.35786,190.133
38.45786,186.216
38.55786,189.671
38.65786,201.544
38.75786,231.652
38.85786,298.011
38.95786,456.5272
39.05786,884.64
39.15786,1553.65
39.25786,1842.8
39.35786,1552.62
39.45786,1048.841
39.55786,665.682
39.65786,520.053
39.75786,649.403
39.85786,1215.63
39.95786,1798.46
40.05786,1820.79
40.15786,1366.21
40.25786,827.195
40.35786,472.06
40.45786,291.165
40.55786,223.478
40.65786,195.921
40.75786,176.138
40.85786,166.203
40.95786,160.296
41.05786,160.994
41.15786,156.058
41.25786,155.083
41.35786,157.317
41.45786,154.607
41.55786,154.212
41.65786,160.572
41.75786,153.486
41.85786,150.122
41.95786,160.512
42.05786,159.298
42.15786,169.609
42.25786,166.406
42.35786,165.682
42.45786,163.228
42.55786,158.673
42.65786,154.123
42.75786,156.982
42.85786,158.254
42.95786,160.655
43.05786,168.483
43.15786,198.383
43.25786,270.525
43.35786,370.577
43.45786,395.046
43.55786,340.22
43.65786,254.934
43.75786,198.72
43.85786,171.859
43.95786,157.582
44.05786,152.846
44.15786,157.242
44.25786,155.159
44.35786,157.468
44.45786,157.576
44.55786,160.0406
44.65786,159.299
44.75786,163.113
44.85786,169.131
44.95786,176.213
45.05786,193.024
45.15786,232.4246
45.25786,350.806
45.35786,669.806
45.45786,1134.79
45.55786,1204.02
45.65786,926.705
45.75786,582.226
45.85786,349.102
45.95786,230.096
46.05786,192.322
46.15786,176.774
46.25786,165.8413
46.35786,164.965
46.45786,166.876
46.55786,176.204
46.65786,189.295
46.75786,218.571
46.85786,296.432
46.95786,512.292
47.05786,1120.16
47.15786,1792.84
47.25786,1818.69
47.35786,1309.23
47.45786,761.466
47.55786,416.312
47.65786,259.042
47.75786,207.086
47.85786,180.204
47.95786,165.296
48.05786,157.383
48.15786,150.815
48.25786,147.995
48.35786,150.266
48.45786,155.379
48.55786,155.092
48.65786,157.723
48.75786,170.707
48.85786,214.6103
48.95786,338.299
49.05786,635.824
49.15786,887.928
49.25786,816.859
49.35786,564.669
49.45786,346.288
49.55786,224.345
49.65786,179.505
49.75786,158.518
49.85786,146.801
49.95786,137.345
50.05786,135.738
50.15786,136.159
50.25786,135.484
50.35786,137.165
50.45786,133.286
50.55786,135.65
50.65786,134.5422
50.75786,134.84
50.85786,134.3659
50.95786,136.186
51.05786,130.976
51.15786,129.772
51.25786,126.8868
51.35786,130.4
51.45786,131.651
51.55786,130.546
51.65786,132.597
51.75786,141.12
51.85786,140.4223
51.95786,143.627
52.05786,143.18
52.15786,136.14
52.25786,130.677
52.35786,128.519
52.45786,129.047
52.55786,129.781
52.65786,136.035
52.75786,139.128
52.85786,158.956
52.95786,197.355
53.05786,215.084
53.15786,199.739
53.25786,171.638
53.35786,146.652
53.45786,139.042
53.55786,136.586
53.65786,136.617
53.75786,138.189
53.85786,136.988
53.95786,140.618
54.05786,143.216
54.15786,165.159
54.25786,242.671
54.35786,397.186
54.45786,479.178
54.55786,413.563
54.65786,288.152
54.75786,200.782
54.85786,156.079
54.95786,145.004
55.05786,137.7621
55.15786,134.539
55.25786,133.055
55.35786,138.373
55.45786,139.546
55.55786,136.342
55.65786,135.954
55.75786,135.293
55.85786,137.509
55.95786,139.944
56.05786,151.673
56.15786,181.795
56.25786,283.413
56.35786,473.482
56.45786,525.404
56.55786,428.924
56.65786,291.888
56.75786,196.674
56.85786,158.325
56.95786,147.414
57.05786,146.48
57.15786,145.482
57.25786,146.484
57.35786,143.041
57.45786,148.199
57.55786,160.252
57.65786,203.291
57.75786,311.699
57.85786,637.42
57.95786,1040.71
58.05786,1060.37
58.15786,792.015
58.25786,508.498
58.35786,311.543
58.45786,224.198
58.55786,175.696
58.65786,156.112
58.75786,144.6181
58.85786,137.109
58.95786,134.441
59.05786,137.018
59.15786,135.387
59.25786,143.467
59.35786,154.374
59.45786,209.529
59.55786,307.716
59.65786,379.343
59.75786,338.827
59.85786,248.91
59.95786,180.806
60.05786,143.67
60.15786,139.438
60.25786,136.854
60.35786,136.233
60.45786,135.167
60.55786,133.783
60.65786,137.828
60.75786,135.102
60.85786,134.571
60.95786,132.856
61.05786,126.48
61.15786,132.69
61.25786,134.86
61.35786,134.835
61.45786,134.72
61.55786,131.659
61.65786,126.121
61.75786,132.536
61.85786,131.687
61.95786,132.342
62.05786,128.642
62.15786,129.718
62.25786,128.151
62.35786,128.514
62.45786,132.6248
62.55786,125.354
62.65786,131.636
62.75786,134.763
62.85786,130.329
62.95786,130.174
63.05786,126.755
63.15786,130.888
63.25786,130.429
63.35786,128.887
63.45786,126.375
63.55786,130.294
63.65786,132.114
63.75786,133.093
63.85786,140.38
63.95786,144.111
64.05786,148.284
64.15786,150.283
64.25786,155.868
64.35786,192.543
64.45786,294.3
64.55786,620.643
64.65786,948.0887
64.75786,874.435
64.85786,576.88
64.95786,334.331
65.05786,274.126
65.15786,342.58
65.25786,346.945
65.35786,270.427
65.45786,190.005
65.55786,156.021
65.65786,141.592
65.75786,144.365
65.85786,130.658
65.95786,130.007
66.05786,130.989
66.15786,129.69
66.25786,133.07
66.35786,126.952
66.45786,127.405
66.55786,132.887
66.65786,126.822
66.75786,130.096
66.85786,135.177
66.95786,131.153
67.05786,133.011
67.15786,132.157
67.25786,141.774
67.35786,148.951
67.45786,193.913
67.55786,323.8148
67.65786,516.618
67.75786,520.079
67.85786,368.712
67.95786,231.595
68.05786,163.834
68.15786,144.349
68.25786,138.376
68.35786,132.4178
68.45786,131.88
68.55786,133.721
68.65786,131.903
68.75786,139.019
68.85786,141.946
68.95786,164.884
69.05786,254.463
69.15786,506.379
69.25786,836.755
69.35786,787.391
69.45786,486.893
69.55786,261.492
69.65786,178.482
69.75786,150.795
69.85786,150.886
69.95786,142.198
70.05786,133.857
70.15786,135.276
70.25786,132.782
70.35786,150.044
70.45786,200.719
70.55786,328.868
70.65786,427.163
70.75786,367.631
70.85786,295.836
70.95786,351.922
71.05786,696.92
71.15786,1034
71.25786,881.561
71.35786,518.541
71.45786,272.663
71.55786,185.102
71.65786,165.722
71.75786,153.749
71.85786,158.339
71.95786,201.184
72.05786,314.316
72.15786,359.6589
72.25786,270.7855
72.35786,193.71
72.45786,152.281
72.55786,137.913
72.65786,128.372
72.75786,123.962
72.85786,122.564
72.95786,118.205
73.05786,118.768
73.15786,122.934
73.25786,125.7425
73.35786,124.747
73.45786,124.082
73.55786,127.901
73.65786,131.012
73.75786,136.254
73.85786,135.787
73.95786,150.345
74.05786,198.358
74.15786,387.075
74.25786,791.6168
74.35786,1048.21
74.45786,795.173
74.55786,435.8
74.65786,235.433
74.75786,179.6454
74.85786,164.181
74.95786,161.256
75.05786,186.2761
75.15786,289.954
75.25786,417.653
75.35786,373.223
75.45786,246.772
75.55786,178.607
75.65786,168.567
75.75786,165.165
75.85786,176.1516
75.95786,182.568
76.05786,236.828
76.15786,442.711
76.25786,1044.32
76.35786,1984.06
76.45786,2095.82
76.55786,1340.56
76.65786,636.734
76.75786,306.218
76.85786,215.804
76.95786,187.399
77.05786,166.71
77.15786,148.168
77.25786,142.029
77.35786,142.852
77.45786,142.739
77.55786,146.186
77.65786,152.563
77.75786,179.266
77.85786,266.647
77.95786,474.309
78.05786,803.975
78.15786,810.258
78.25786,510.9259
78.35786,269.646
78.45786,167.478
78.55786,148.482
78.65786,143.485
78.75786,134.961
78.85786,132.058
78.95786,134.9106
79.05786,138.111
79.15786,156.353
79.25786,230.056
79.35786,422.238
79.45786,621.997
79.55786,686.715
79.65786,566.2364
79.75786,348.907
79.85786,207.486
79.95786,161.235
80.05786,140.4342
80.15786,137.853
80.25786,134.719
80.35786,134.759
80.45786,131.997
80.55786,149.213
80.65786,211.783
80.75786,388.412
80.85786,615.076
80.95786,572.805
81.05786,354.701
81.15786,200.574
81.25786,149.721
81.35786,140.868
81.45786,134.1408
81.55786,130.763
81.65786,129.372
81.75786,128.358
81.85786,132.703
81.95786,139.987
82.05786,174.412
82.15786,302.642
82.25786,593.8635
82.35786,700.961
82.45786,477.918
82.55786,250.638
82.65786,160.3957
82.75786,140.55
82.85786,131.343
82.95786,124.309
83.05786,122.871
83.15786,121.78
83.25786,120.946
83.35786,116.251
83.45786,117.846
83.55786,120.08
83.65786,118.692
83.75786,125.033
83.85786,124.889
83.95786,132.356
84.05786,144.557
84.15786,175.273
84.25786,283.49
84.35786,626.197
84.45786,864.051
84.55786,611.739
84.65786,311.5784
84.75786,175.371
84.85786,140.574
84.95786,137.494
85.05786,131.06
85.15786,121.218
85.25786,123.287
85.35786,122.56
85.45786,116.721
85.55786,122.923
85.65786,138.405
85.75786,166.536
85.85786,183.997
85.95786,162.596
86.05786,143.319
86.15786,133.487
86.25786,169.761
86.35786,221.047
86.45786,209.591
86.55786,162.472
86.65786,128.626
86.75786,120.8225
86.85786,124.579
86.95786,121.621
87.05786,120.042
87.15786,117.017
87.25786,118.799
87.35786,125.239
87.45786,127.104
87.55786,136.245
87.65786,161.511
87.75786,234.788
87.85786,454.683
87.95786,569.347
88.05786,502.676
88.15786,369.398
88.25786,228.235
88.35786,159.784
88.45786,138.287
88.55786,128.394
88.65786,125.6958
88.75786,122.534
88.85786,119.239
88.95786,121.84
89.05786,114.2282
89.15786,116.303
89.25786,117.538
89.35786,117.817
89.45786,114.869
89.55786,115.2796
89.65786,115.706
89.75786,119.415
89.85786,116.155
89.95786,123.008
90.05786,126.696
90.15786,135.512
90.25786,155.851
90.35786,206.169
90.45786,333.654
90.55786,439.248
90.65786,475.091
90.75786,739.916
90.85786,960.938
90.95786,723.7384
91.05786,361.609
91.15786,223.192
91.25786,276.83
91.35786,325.312
91.45786,261.027
91.55786,178.302
91.65786,142.711
91.75786,129.18
91.85786,130.426
91.95786,124.233
92.05786,125.88
92.15786,121.575
92.25786,122.805
92.35786,120.782
92.45786,120.484
92.55786,123.813
92.65786,119.45
92.75786,116.317
92.85786,113.462
92.95786,114.479
93.05786,115.4505
93.15786,113.6825
93.25786,119.5982
93.35786,114.522
93.45786,113.775
93.55786,112.62
93.65786,112.959
93.75786,115.301
93.85786,112.375
93.95786,111.961
94.05786,114.2023
94.15786,116.554
94.25786,114.89
94.35786,115.709
94.45786,112.576
94.55786,118.022
94.65786,123.523
94.75786,125.155
94.85786,126.966
94.95786,130.794
95.05786,160.302
95.15786,251.594
95.25786,406.0741
95.35786,387.661
95.45786,290.363
95.55786,218.641
95.65786,160.537
95.75786,141.055
95.85786,127.249
95.95786,124.2507
96.05786,123.944
96.15786,127.802
96.25786,149.112
96.35786,193.214
96.45786,216.307
96.55786,164.852
96.65786,128.816
96.75786,119.714
96.85786,122.6839
96.95786,121.04
97.05786,119.783
97.15786,118.102
97.25786,120.617
97.35786,118.154
97.45786,125.262
97.55786,126.081
97.65786,139.925
97.75786,181.431
97.85786,253.791
97.95786,233.34
98.05786,171.945
98.15786,134.3376
98.25786,121.788
98.35786,123.12
98.45786,121.572
98.55786,124.052
98.65786,123.873
98.75786,136.319
98.85786,147.345
98.95786,163.865
99.05786,193.146
99.15786,292.113
99.25786,583.779
99.35786,1087.76
99.45786,1199.87
99.55786,902.194
99.65786,510.64
99.75786,269.18
99.85786,184.192
99.95786,170.497
100.058,153.275
100.158,142.795
100.258,132.869
100.358,129.445
100.458,130.69
100.558,133.866
100.658,157.388
100.758,215.958
100.858,297.823
100.958,257.78
101.058,175.054
101.158,136.026
101.258,127.326
101.358,128.069
101.458,132.166
101.558,126.758
101.658,120.899
101.758,116.835
101.858,118.844
101.958,122.0568
102.058,122.048
102.158,120.03
102.258,119.32
102.358,118.246
102.458,118.561
102.558,117.216
102.658,113.913
102.758,119.722
102.858,117.432
102.958,116.057
103.058,117.662
103.158,122.2273
103.258,115.288
103.358,115.5483
103.458,118.371
103.558,116.464
103.658,116.935
103.758,117.012
103.858,117.208
103.958,116.977
104.058,113.849
104.158,125.392
104.258,123.628
104.358,123.805
104.458,122.068
104.558,121.756
104.658,125.055
104.758,126.873
104.858,132.938
104.958,132.755
105.058,146.802
105.158,191.93
105.258,306.084
105.358,572.6858
105.458,555.318
105.558,313.423
105.658,184.429
105.758,158.2472
105.858,166.336
105.958,160.057
106.058,149.368
106.158,141.301
106.258,151.203
106.358,206.048
106.458,288.235
106.558,266.843
106.658,175.436
106.758,144.432
106.858,132.745
106.958,132.53
107.058,135.159
107.158,130.153
107.258,129.696
107.358,135.466
107.458,142.234
107.558,142.142
107.658,149.332
107.758,169.284
107.858,217.306
107.958,358.084
108.058,656.931
108.158,771.472
108.258,755.649
108.358,551.932
108.458,306.931
108.558,198.067
108.658,177.969
108.758,173.318
108.858,186.903
108.958,221.736
109.058,360.997
109.158,612.7924
109.258,613.363
109.358,548.7
109.458,585.124
109.558,445.407
109.658,301.376
109.758,330.679
109.858,367.089
109.958,262.413
110.058,182.356
110.158,150.576
110.258,148.1152
110.358,148.003
110.458,154.9814
110.558,178.187
110.658,257.762
110.758,472.95
110.858,688.29
110.958,459.5675
111.058,246.52
111.158,166.943
111.258,150.789
111.358,141.074
111.458,141.763
111.558,148.745
111.658,173.408
111.758,185.247
111.858,152.4427
111.958,134.761
112.058,124.803
112.158,124.546
112.258,124.229
112.358,125.695
112.458,129.338
112.558,139.429
112.658,176.27
112.758,183.241
112.858,151.594
112.958,129.46
113.058,124.007
113.158,125.336
113.258,131.685
113.358,121.962
113.458,123.787
113.558,124.687
113.658,120.6823
113.758,120.342
113.858,123.047
113.958,125.7363
114.058,122.006
114.158,126.513
114.258,124.312
114.358,127.755
114.458,143.857
114.558,150.761
114.658,140.754
114.758,131.882
114.858,124.595
114.958,134.056
115.058,143.229
115.158,136.62
115.258,125.428
115.358,123.361
115.458,122.145
115.558,124.447
115.658,122.767
115.758,130.171
115.858,124.414
115.958,123.745
116.058,129.14
116.158,126.576
116.258,131.568
116.358,134.672
116.458,135.175
116.558,144.666
116.658,163.695
116.758,192.6767
116.858,241.398
116.958,341.063
117.058,611.549
117.158,1371.99
117.258,2268.21
117.358,1847.19
117.458,853.339
117.558,403.898
117.658,239.466
117.758,196.714
117.858,179.777
117.958,164.719
118.058,153.244
118.158,146.283
118.258,146.281
118.358,145.882
118.458,148.748
118.558,152.414
118.658,170.385
118.758,220.174
118.858,357.264
118.958,432.31
119.058,346.904
119.158,276.437
119.258,193.857
119.358,157.382
119.458,142.623
119.558,133.093
119.658,137.348
119.758,136.53
119.858,137.807
119.958,152.979
120.058,183.368
120.158,199.801
120.258,202.054
120.358,243.226
120.458,302.916
120.558,422.789
120.658,485.765
120.758,341.58
120.858,211.741
120.958,161.913
121.058,143.887
121.158,137.709
121.258,135.668
121.358,135.843
121.458,139.348
121.558,142.061
121.658,148.207
121.758,162.956
121.858,195.966
121.958,247.816
122.058,394.701
122.158,783.302
122.258,1224.78
122.358,1089.09
122.458,607.429
122.558,336.489
122.658,214.593
122.758,177.095
122.858,162.238
122.958,150.088
123.058,135.316
123.158,137.23
123.258,130.762
123.358,132.467
123.458,128.506
123.558,126.719
123.658,130.42
123.758,136.9785
123.858,161.167
123.958,190.861
124.058,189.262
124.158,156.054
124.258,137.615
124.358,130.916
124.458,125.228
124.558,122.102
124.658,125.182
124.758,123.809
124.858,124.309
124.958,124.2
125.058,125.9117
125.158,126.271
125.258,122.447
125.358,125.361
125.458,132.276
125.558,133.107
125.658,134.104
125.758,130.326
125.858,134.338
125.958,141.04
126.058,148.008
126.158,166.777
126.258,195.517
126.358,273.291
126.458,466.1623
126.558,719.957
126.658,695.601
126.758,429.249
126.858,269.759
126.958,203.216
127.058,178.056
127.158,165.535
127.258,159.953
127.358,165.072
127.458,185.084
127.558,237.986
127.658,321.663
127.758,377.327
127.858,469.715
127.958,633.7065
128.058,616.1724
128.158,554.808
128.258,671.439
128.358,687.241
128.458,464.936
128.558,300.816
128.658,213.756
128.758,175.17
128.858,157.113
128.958,145.996
129.058,144.91
129.158,139.4217
129.258,132.533
129.358,137.339
129.458,134.866
129.558,133.2898
129.658,134.395
129.758,132.618
129.858,131.289
129.958,131.145
130.058,128.478
130.158,127.491
130.258,129.997
130.358,134.4598
130.458,133.119
130.508,133.602