File: data/xrd_icdd_PDF/00-071-0759 (PD3).csv
10,394
10.05709,407
10.11418,442
10.17127,386
10.22836,439
10.28546,417
10.34255,413
10.39964,428
10.45673,410
10.51382,422
10.57091,442
10.628,391
10.68509,424
10.74219,400
10.79928,404
10.85637,388
10.91346,426
10.97055,423
11.02764,377
11.08473,400
11.14182,375
11.19892,385
11.25601,380
11.3131,412
11.37019,434
11.42728,395
11.48437,377
11.54146,395
11.59855,383
11.65564,372
11.71274,362
11.76983,348
11.82692,381
11.88401,396
11.9411,409
11.99819,389
12.05528,348
12.11237,369
12.16947,375
12.22656,410
12.28365,369
12.34074,368
12.39783,359
12.45492,378
12.51201,391
12.5691,412
12.6262,367
12.68329,378
12.74038,359
12.79747,374
12.85456,370
12.91165,367
12.96874,376
13.02583,354
13.08292,343
13.14002,365
13.19711,350
13.2542,357
13.31129,391
13.36838,348
13.42547,357
13.48256,374
13.53965,361
13.59675,346
13.65384,352
13.71093,376
13.76802,376
13.82511,325
13.8822,346
13.93929,350
13.99638,352
14.05348,357
14.11057,343
14.16766,318
14.22475,343
14.28184,327
14.33893,343
14.39602,305
14.45311,348
14.5102,314
14.5673,337
14.62439,334
14.68148,309
14.73857,322
14.79566,330
14.85275,313
14.90984,326
14.96693,332
15.02403,342
15.08112,307
15.13821,317
15.1953,310
15.25239,335
15.30948,306
15.36657,353
15.42366,301
15.48076,396
15.53785,385
15.59494,326
15.65203,327
15.70912,328
15.76621,305
15.8233,317
15.88039,319
15.93748,304
15.99458,312
16.05167,319
16.10876,299
16.16585,346
16.22294,309
16.28003,309
16.33712,277
16.39421,325
16.45131,337
16.5084,279
16.56549,276
16.62258,321
16.67967,291
16.73676,285
16.79385,325
16.85094,301
16.90804,287
16.96513,289
17.02222,283
17.07931,304
17.1364,297
17.19349,340
17.25058,306
17.30767,294
17.36476,314
17.42186,288
17.47895,313
17.53604,322
17.59313,285
17.65022,324
17.70731,318
17.7644,306
17.82149,294
17.87859,312
17.93568,312
17.99277,286
18.04986,291
18.10695,328
18.16404,321
18.22113,320
18.27822,273
18.33532,294
18.39241,301
18.4495,335
18.50659,318
18.56368,277
18.62077,311
18.67786,304
18.73495,315
18.79204,326
18.84914,334
18.90623,291
18.96332,291
19.02041,313
19.0775,322
19.13459,297
19.19168,321
19.24877,329
19.30587,304
19.36296,299
19.42005,356
19.47714,324
19.53423,315
19.59132,325
19.64841,310
19.7055,320
19.7626,338
19.81969,319
19.87678,310
19.93387,301
19.99096,307
20.04805,295
20.10514,340
20.16223,338
20.21932,322
20.27642,326
20.33351,307
20.3906,321
20.44769,328
20.50478,319
20.56187,319
20.61896,322
20.67605,323
20.73315,299
20.79024,313
20.84733,354
20.90442,352
20.96151,317
21.0186,333
21.07569,348
21.13278,329
21.18988,309
21.24697,367
21.30406,352
21.36115,354
21.41824,330
21.47533,341
21.53242,309
21.58951,328
21.6466,323
21.7037,317
21.76079,312
21.81788,311
21.87497,356
21.93206,315
21.98915,332
22.04624,329
22.10333,347
22.16043,341
22.21752,339
22.27461,359
22.3317,335
22.38879,342
22.44588,319
22.50297,318
22.56006,396
22.61716,336
22.67425,344
22.73134,388
22.78843,364
22.84552,331
22.90261,330
22.9597,337
23.01679,362
23.07388,365
23.13098,335
23.18807,339
23.24516,362
23.30225,352
23.35934,325
23.41643,306
23.47352,312
23.53061,305
23.58771,317
23.6448,353
23.70189,319
23.75898,342
23.81607,320
23.87316,331
23.93025,349
23.98734,301
24.04444,388
24.10153,345
24.15862,376
24.21571,377
24.2728,331
24.32989,356
24.38698,373
24.44407,367
24.50116,319
24.55826,336
24.61535,344
24.67244,352
24.72953,370
24.78662,356
24.84371,327
24.9008,338
24.95789,378
25.01499,372
25.07208,339
25.12917,327
25.18626,363
25.24335,352
25.30044,367
25.35753,339
25.41462,353
25.47172,389
25.52881,362
25.5859,383
25.64299,411
25.70008,420
25.75717,408
25.81426,368
25.87135,381
25.92844,372
25.98554,369
26.04263,355
26.09972,382
26.15681,384
26.2139,388
26.27099,372
26.32808,361
26.38517,370
26.44227,366
26.49936,399
26.55645,385
26.61354,375
26.67063,366
26.72772,400
26.78481,389
26.8419,402
26.899,398
26.95609,389
27.01318,373
27.07027,339
27.12736,336
27.18445,367
27.24154,397
27.29863,391
27.35572,380
27.41282,397
27.46991,451
27.527,367
27.58409,399
27.64118,416
27.69827,425
27.75536,391
27.81245,379
27.86955,409
27.92664,401
27.98373,382
28.04082,372
28.09791,372
28.155,421
28.21209,401
28.26918,406
28.32628,384
28.38337,389
28.44046,410
28.49755,367
28.55464,385
28.61173,377
28.66882,410
28.72591,397
28.783,423
28.8401,430
28.89719,383
28.95428,412
29.01137,410
29.06846,401
29.12555,430
29.18264,416
29.23973,457
29.29683,427
29.35392,437
29.41101,399
29.4681,389
29.52519,414
29.58228,456
29.63937,399
29.69646,396
29.75356,415
29.81065,433
29.86774,385
29.92483,427
29.98192,448
30.03901,440
30.0961,429
30.15319,442
30.21028,402
30.26738,411
30.32447,458
30.38156,405
30.43865,441
30.49574,433
30.55283,421
30.60992,418
30.66701,425
30.72411,434
30.7812,435
30.83829,456
30.89538,465
30.95247,477
31.00956,454
31.06665,437
31.12374,484
31.18084,528
31.23793,631
31.29502,1119
31.35211,2405
31.4092,1635
31.46629,722
31.52338,552
31.58047,522
31.63756,432
31.69466,509
31.75175,440
31.80884,439
31.86593,485
31.92302,438
31.98011,462
32.0372,461
32.09429,441
32.15139,447
32.20848,435
32.26557,420
32.32266,421
32.37975,416
32.43684,450
32.49393,400
32.55102,413
32.60812,423
32.66521,431
32.7223,384
32.77939,436
32.83648,453
32.89357,450
32.95066,413
33.00775,459
33.06484,457
33.12194,411
33.17903,433
33.23612,399
33.29321,385
33.3503,408
33.40739,425
33.46448,453
33.52157,416
33.57867,440
33.63576,436
33.69285,387
33.74994,396
33.80703,425
33.86412,432
33.92121,429
33.9783,439
34.0354,416
34.09249,395
34.14958,429
34.20667,416
34.26376,435
34.32085,382
34.37794,433
34.43503,377
34.49212,397
34.54922,430
34.60631,439
34.6634,405
34.72049,397
34.77758,422
34.83467,388
34.89176,444
34.94885,428
35.00595,462
35.06304,489
35.12013,574
35.17722,730
35.23431,663
35.2914,597
35.34849,499
35.40558,447
35.46268,478
35.51977,472
35.57686,464
35.63395,484
35.69104,513
35.74813,501
35.80522,524
35.86231,521
35.9194,587
35.9765,627
36.03359,634
36.09068,643
36.14777,838
36.20486,906
36.26195,1168
36.31904,1861
36.37613,3195
36.43323,2198
36.49032,1723
36.54741,1021
36.6045,765
36.66159,678
36.71868,567
36.77577,516
36.83286,501
36.88996,486
36.94705,450
37.00414,476
37.06123,456
37.11832,426
37.17541,416
37.2325,442
37.28959,459
37.34668,452
37.40378,435
37.46087,415
37.51796,457
37.57505,394
37.63214,430
37.68923,414
37.74632,433
37.80341,434
37.86051,417
37.9176,391
37.97469,426
38.03178,413
38.08887,402
38.14596,427
38.20305,403
38.26014,426
38.31724,444
38.37433,450
38.43142,451
38.48851,413
38.5456,457
38.60269,395
38.65978,472
38.71687,415
38.77396,416
38.83106,427
38.88815,451
38.94524,451
39.00233,441
39.05942,414
39.11651,450
39.1736,416
39.23069,417
39.28779,413
39.34488,433
39.40197,408
39.45906,404
39.51615,400
39.57324,465
39.63033,454
39.68742,443
39.74452,403
39.80161,417
39.8587,405
39.91579,427
39.97288,434
40.02997,453
40.08706,459
40.14415,430
40.20124,478
40.25834,429
40.31543,416
40.37252,503
40.42961,497
40.4867,506
40.54379,527
40.60088,546
40.65797,521
40.71507,679
40.77216,797
40.82925,1110
40.88634,990
40.94343,922
41.00052,698
41.05761,568
41.1147,512
41.1718,494
41.22889,473
41.28598,476
41.34307,420
41.40016,466
41.45725,410
41.51434,436
41.57143,434
41.62852,428
41.68562,455
41.74271,431
41.7998,444
41.85689,413
41.91398,397
41.97107,457
42.02816,414
42.08525,449
42.14235,398
42.19944,429
42.25653,357
42.31362,426
42.37071,413
42.4278,379
42.48489,405
42.54198,401
42.59908,396
42.65617,405
42.71326,425
42.77035,443
42.82744,393
42.88453,398
42.94162,429
42.99871,414
43.0558,428
43.1129,399
43.16999,425
43.22708,415
43.28417,412
43.34126,382
43.39835,475
43.45544,404
43.51253,425
43.56963,449
43.62672,415
43.68381,406
43.7409,375
43.79799,398
43.85508,420
43.91217,442
43.96926,489
44.02636,436
44.08345,478
44.14054,385
44.19763,409
44.25472,393
44.31181,382
44.3689,418
44.42599,438
44.48308,405
44.54018,368
44.59727,396
44.65436,416
44.71145,411
44.76854,394
44.82563,411
44.88272,404
44.93981,393
44.99691,394
45.054,396
45.11109,383
45.16818,435
45.22527,414
45.28236,414
45.33945,379
45.39654,413
45.45364,427
45.51073,403
45.56782,368
45.62491,421
45.682,406
45.73909,392
45.79618,394
45.85327,406
45.91036,397
45.96746,345
46.02455,392
46.08164,396
46.13873,429
46.19582,381
46.25291,413
46.31,407
46.36709,416
46.42419,399
46.48128,392
46.53837,425
46.59546,386
46.65255,410
46.70964,402
46.76673,388
46.82382,397
46.88092,402
46.93801,426
46.9951,393
47.05219,390
47.10928,407
47.16637,379
47.22346,404
47.28055,401
47.33764,344
47.39474,380
47.45183,391
47.50892,375
47.56601,376
47.6231,357
47.68019,431
47.73728,410
47.79437,497
47.85147,434
47.90856,438
47.96565,428
48.02274,393
48.07983,388
48.13692,361
48.19401,426
48.2511,420
48.3082,412
48.36529,394
48.42238,372
48.47947,434
48.53656,407
48.59365,398
48.65074,376
48.70783,391
48.76492,353
48.82202,419
48.87911,405
48.9362,353
48.99329,413
49.05038,403
49.10747,381
49.16456,407
49.22165,414
49.27875,347
49.33584,413
49.39293,403
49.45002,388
49.50711,386
49.5642,369
49.62129,401
49.67838,370
49.73548,410
49.79257,408
49.84966,354
49.90675,368
49.96384,402
50.02093,389
50.07802,391
50.13511,373
50.1922,378
50.2493,387
50.30639,395
50.36348,374
50.42057,370
50.47766,384
50.53475,410
50.59184,409
50.64893,404
50.70603,377
50.76312,381
50.82021,403
50.8773,374
50.93439,392
50.99148,405
51.04857,385
51.10566,408
51.16276,410
51.21985,406
51.27694,388
51.33403,358
51.39112,382
51.44821,403
51.5053,404
51.56239,397
51.61948,378
51.67658,385
51.73367,383
51.79076,401
51.84785,386
51.90494,384
51.96203,359
52.01912,411
52.07621,367
52.13331,410
52.1904,406
52.24749,395
52.30458,384
52.36167,419
52.41876,372
52.47585,368
52.53294,388
52.59004,388
52.64713,410
52.70422,369
52.76131,422
52.8184,378
52.87549,393
52.93258,396
52.98967,382
53.04676,391
53.10386,380
53.16095,406
53.21804,417
53.27513,359
53.33222,405
53.38931,372
53.4464,387
53.50349,379
53.56059,384
53.61768,414
53.67477,361
53.73186,415
53.78895,404
53.84604,365
53.90313,396
53.96022,354
54.01732,399
54.07441,372
54.1315,377
54.18859,406
54.24568,396
54.30277,388
54.35986,390
54.41695,404
54.47404,406
54.53114,431
54.58823,430
54.64532,443
54.70241,389
54.7595,437
54.81659,395
54.87368,362
54.93077,424
54.98787,377
55.04496,420
55.10205,417
55.15914,478
55.21623,430
55.27332,467
55.33041,436
55.3875,446
55.4446,498
55.50169,479
55.55878,495
55.61587,578
55.67296,650
55.73005,662
55.78714,913
55.84423,916
55.90132,855
55.95842,793
56.01551,661
56.0726,535
56.12969,513
56.18678,418
56.24387,459
56.30096,421
56.35805,440
56.41515,431
56.47224,422
56.52933,411
56.58642,442
56.64351,424
56.7006,400
56.75769,401
56.81478,381
56.87188,394
56.92897,426
56.98606,427
57.04315,420
57.10024,401
57.15733,401
57.21442,403
57.27151,374
57.3286,392
57.3857,376
57.44279,388
57.49988,414
57.55697,393
57.61406,354
57.67115,418
57.72824,450
57.78533,421
57.84243,392
57.89952,389
57.95661,369
58.0137,400
58.07079,385
58.12788,373
58.18497,415
58.24206,419
58.29916,388
58.35625,424
58.41334,353
58.47043,401
58.52752,411
58.58461,406
58.6417,417
58.69879,377
58.75588,398
58.81298,374
58.87007,392
58.92716,385
58.98425,421
59.04134,367
59.09843,401
59.15552,411
59.21261,405
59.26971,433
59.3268,390
59.38389,380
59.44098,425
59.49807,419
59.55516,406
59.61225,398
59.66934,394
59.72644,409
59.78353,389
59.84062,368
59.89771,401
59.9548,421
60.01189,450
60.06898,373
60.12607,376
60.18316,384
60.24026,389
60.29735,381
60.35444,417
60.41153,396
60.46862,382
60.52571,403
60.5828,365
60.63989,411
60.69699,405
60.75408,389
60.81117,400
60.86826,400
60.92535,374
60.98244,381
61.03953,360
61.09662,389
61.15372,431
61.21081,412
61.2679,374
61.32499,413
61.38208,433
61.43917,420
61.49626,406
61.55335,399
61.61044,428
61.66754,364
61.72463,392
61.78172,379
61.83881,408
61.8959,465
61.95299,455
62.01008,431
62.06717,437
62.12427,476
62.18136,499
62.23845,554
62.29554,674
62.35263,907
62.40972,799
62.46681,638
62.5239,740
62.581,598
62.63809,502
62.69518,439
62.75227,434
62.80936,462
62.86645,418
62.92354,442
62.98063,384
63.03772,419
63.09482,443
63.15191,414
63.209,405
63.26609,414
63.32318,384
63.38027,398
63.43736,433
63.49445,419
63.55155,406
63.60864,388
63.66573,390
63.72282,411
63.77991,366
63.837,397
63.89409,410
63.95118,391
64.00828,393
64.06537,425
64.12246,397
64.17955,379
64.23664,419
64.29373,400
64.35082,367
64.40791,358
64.465,431
64.5221,398
64.57919,416
64.63628,429
64.69337,430
64.75046,397
64.80755,437
64.86464,451
64.92173,442
64.97883,488
65.03592,455
65.09301,455
65.1501,469
65.20719,545
65.26428,513
65.32137,596
65.37846,773
65.43556,981
65.49265,735
65.54974,660
65.60683,725
65.66392,573
65.72101,499
65.7781,477
65.83519,424
65.89228,472
65.94938,405
66.00647,395
66.06356,401
66.12065,422
66.17774,375
66.23483,375
66.29192,385
66.34901,372
66.40611,398
66.4632,419
66.52029,391
66.57738,418
66.63447,354
66.69156,411
66.74865,383
66.80574,370
66.86284,394
66.91993,400
66.97702,361
67.03411,399
67.0912,370
67.14829,389
67.20538,403
67.26247,386
67.31956,396
67.37666,422
67.43375,411
67.49084,356
67.54793,402
67.60502,371
67.66211,407
67.7192,398
67.77629,406
67.83339,411
67.89048,370
67.94757,427
68.00466,376
68.06175,415
68.11884,417
68.17593,386
68.23302,378
68.29012,383
68.34721,421
68.4043,419
68.46139,388
68.51848,416
68.57557,398
68.63266,384
68.68975,373
68.74684,371
68.80394,419
68.86103,385
68.91812,384
68.97521,411
69.0323,371
69.08939,382
69.14648,399
69.20357,398
69.26067,395
69.31776,363
69.37485,418
69.43194,405
69.48903,395
69.54612,387
69.60321,420
69.6603,413
69.7174,405
69.77449,408
69.83158,405
69.88867,392
69.94576,403
70.00285,407
70.05994,418
70.11703,396
70.17412,408
70.23122,414
70.28831,379
70.3454,396
70.40249,416
70.45958,418
70.51667,393
70.57376,409
70.63085,443
70.68795,407
70.74504,412
70.80213,404
70.85922,387
70.91631,437
70.9734,410
71.03049,427
71.08758,460
71.14468,461
71.20177,425
71.25886,457
71.31595,475
71.37304,503
71.43013,577
71.48722,603
71.54431,535
71.6014,544
71.6585,525
71.71559,521
71.77268,443
71.82977,422
71.88686,433
71.94395,434
72.00104,402
72.05813,423
72.11523,423
72.17232,415
72.22941,383
72.2865,407
72.34359,432
72.40068,388
72.45777,420
72.51486,418
72.57196,400
72.62905,406
72.68614,377
72.74323,381
72.80032,383
72.85741,432
72.9145,386
72.97159,401
73.02868,386
73.08578,376
73.14287,395
73.19996,362
73.25705,431
73.31414,413
73.37123,409
73.42832,380
73.48541,412
73.54251,427
73.5996,424
73.65669,386
73.71378,365
73.77087,387
73.82796,429
73.88505,369
73.94214,404
73.99924,390
74.05633,412
74.11342,405
74.17051,407
74.2276,429
74.28469,474
74.34178,482
74.39887,561
74.45596,518
74.51306,516
74.57015,464
74.62724,490
74.68433,445
74.74142,431
74.79851,398
74.8556,426
74.91269,418
74.96979,410
75.02688,390
75.08397,399
75.14106,402
75.19815,409
75.25524,395
75.31233,423
75.36942,371
75.42652,357
75.48361,398
75.5407,424
75.59779,432
75.65488,408
75.71197,397
75.76906,393
75.82615,412
75.88324,404
75.94034,386
75.99743,389
76.05452,363
76.11161,375
76.1687,381
76.22579,399
76.28288,413
76.33997,380
76.39707,377
76.45416,404
76.51125,387
76.56834,424
76.62543,401
76.68252,375
76.73961,382
76.7967,415
76.8538,390
76.91089,409
76.96798,386
77.02507,434
77.08216,417
77.13925,378
77.19634,435
77.25343,468
77.31052,470
77.36762,423
77.42471,418
77.4818,416
77.53889,426
77.59598,413
77.65307,441
77.71016,448
77.76725,400
77.82435,379
77.88144,405
77.93853,400
77.99562,411
78.05271,418
78.1098,386
78.16689,381
78.22398,348
78.28108,389
78.33817,382
78.39526,391
78.45235,421
78.50944,399
78.56653,422
78.62362,388
78.68071,417
78.7378,388
78.7949,401
78.85199,392
78.90908,401
78.96617,363
79.02326,368
79.08035,397
79.13744,389
79.19453,365
79.25163,410
79.30872,405
79.36581,378
79.4229,380
79.47999,391
79.53708,387
79.59417,386
79.65126,390
79.70836,385
79.76545,397
79.82254,369
79.87963,419
79.93672,399
79.99381,363
80.0509,395
80.10799,388
80.16508,378
80.22218,402
80.27927,373
80.33636,357
80.39345,398
80.45054,401
80.50763,380
80.56472,393
80.62181,388
80.67891,369
80.736,427
80.79309,381
80.85018,364
80.90727,385
80.96436,383
81.02145,396
81.07854,375
81.13564,378
81.19273,374
81.24982,366
81.30691,375
81.364,365
81.42109,405
81.47818,394
81.53527,409
81.59236,379
81.64946,386
81.70655,411
81.76364,419
81.82073,346
81.87782,357
81.93491,395
81.992,364
82.04909,423
82.10619,409
82.16328,398
82.22037,370
82.27746,407
82.33455,406
82.39164,399
82.44873,402
82.50582,389
82.56292,375
82.62001,403
82.6771,385
82.73419,437
82.79128,387
82.84837,379
82.90546,390
82.96255,429
83.01964,394
83.07674,384
83.13383,383
83.19092,351
83.24801,391
83.3051,408
83.36219,367
83.41928,434
83.47637,400
83.53347,419
83.59056,393
83.64765,391
83.70474,378
83.76183,396
83.81892,379
83.87601,346
83.9331,372
83.9902,390
84.04729,390
84.10438,424
84.16147,404
84.21856,405
84.27565,399
84.33274,343
84.38983,398
84.44692,372
84.50402,363
84.56111,413
84.6182,369
84.67529,386
84.73238,380
84.78947,393
84.84656,373
84.90365,387
84.96075,425
85.01784,401
85.07493,388
85.13202,373
85.18911,420
85.2462,376
85.30329,367
85.36038,404
85.41748,375
85.47457,421
85.53166,408
85.58875,418
85.64584,397
85.70293,389
85.76002,371
85.81711,388
85.8742,392
85.9313,393
85.98839,421
86.04548,377
86.10257,443
86.15966,380
86.21675,375
86.27384,419
86.33093,391
86.38803,389
86.44512,423
86.50221,386
86.5593,390
86.61639,422
86.67348,391
86.73057,430
86.78766,391
86.84476,435
86.90185,388
86.95894,384
87.01603,389
87.07312,402
87.13021,384
87.1873,392
87.24439,374
87.30148,409
87.35858,410
87.41567,407
87.47276,399
87.52985,397
87.58694,420
87.64403,408
87.70112,403
87.75821,432
87.81531,399
87.8724,396
87.92949,445
87.98658,405
88.04367,408
88.10076,425
88.15785,435
88.21494,434
88.27204,423
88.32913,447
88.38622,464
88.44331,472
88.5004,508
88.55749,526
88.61458,509
88.67167,508
88.72876,460
88.78586,478
88.84295,440
88.90004,424
88.95713,412
89.01422,394
89.07131,404
89.1284,413
89.18549,404
89.24259,385
89.29968,383
89.35677,379
89.41386,406
89.47095,411
89.52804,365
89.58513,376
89.64222,377
89.69932,403
89.75641,378
89.8135,373
89.87059,378
89.92768,392
89.98477,418
90.0038,391