File: data/xrd_icdd_PDF/00-051-0097 (PD3).csv
8,6753
8.06,6719
8.12,6790
8.18,6613
8.24,6721
8.3,6657
8.36,6665
8.42,6666
8.48,6532
8.54,6577
8.6,6301
8.66,6455
8.72,6386
8.78,6460
8.84,6370
8.9,6510
8.96,6327
9.02,6417
9.08,6481
9.14,6563
9.2,6812
9.26,7031
9.32,7024
9.38,6612
9.44,6384
9.5,6088
9.56,6178
9.62,6158
9.68,6170
9.74,6120
9.8,6141
9.86,6155
9.92,5933
9.98,6136
10.04,5990
10.1,5956
10.16,6017
10.22,5866
10.28,5987
10.34,6001
10.4,6031
10.46,5867
10.52,5861
10.58,5810
10.64,5953
10.7,5829
10.76,5888
10.82,5743
10.88,5851
10.94,5710
11,5785
11.06,5814
11.12,5699
11.18,5790
11.24,5739
11.3,5576
11.36,5904
11.42,5836
11.48,5936
11.54,6115
11.6,6246
11.66,7282
11.72,9495
11.78,13347
11.84,18721
11.9,18743
11.96,12053
12.02,8387
12.08,6658
12.14,6259
12.2,5967
12.26,5751
12.32,5593
12.38,5510
12.44,5429
12.5,5506
12.56,5490
12.62,5496
12.68,5399
12.74,5475
12.8,5370
12.86,5459
12.92,5439
12.98,5426
13.04,5358
13.1,5493
13.16,5455
13.22,5351
13.28,5389
13.34,5236
13.4,5296
13.46,5370
13.52,5283
13.58,5248
13.64,5182
13.7,5245
13.76,5301
13.82,5254
13.88,5362
13.94,5212
14,5181
14.06,5222
14.12,5123
14.18,5164
14.24,5120
14.3,5061
14.36,5202
14.42,5084
14.48,5072
14.54,5092
14.6,5141
14.66,5147
14.72,5189
14.78,5123
14.84,5241
14.9,5519
14.96,5760
15.02,5625
15.08,5509
15.14,5662
15.2,5927
15.26,5570
15.32,5181
15.38,5120
15.44,5006
15.5,5022
15.56,4907
15.62,4920
15.68,4884
15.74,4963
15.8,4850
15.86,4851
15.92,4807
15.98,4896
16.04,4712
16.1,4774
16.16,4821
16.22,4773
16.28,4726
16.34,4798
16.4,4821
16.46,4828
16.52,4839
16.58,4714
16.64,4776
16.7,4721
16.76,4718
16.82,4694
16.88,4765
16.94,4735
17,4823
17.06,4745
17.12,4720
17.18,4579
17.24,4678
17.3,4673
17.36,4646
17.42,4565
17.48,4654
17.54,4507
17.6,4682
17.66,4486
17.72,4668
17.78,4531
17.84,4717
17.9,4582
17.96,4601
18.02,4690
18.08,4694
18.14,5438
18.2,7084
18.26,11070
18.32,11029
18.38,7592
18.44,5993
18.5,5565
18.56,6115
18.62,6992
18.68,5919
18.74,5153
18.8,4666
18.86,4642
18.92,4366
18.98,4471
19.04,4315
19.1,4315
19.16,4389
19.22,4231
19.28,4408
19.34,4461
19.4,4471
19.46,4335
19.52,4354
19.58,4376
19.64,4331
19.7,4246
19.76,4368
19.82,4275
19.88,4268
19.94,4273
20,4218
20.06,4319
20.12,4250
20.18,4180
20.24,4254
20.3,4214
20.36,4186
20.42,4314
20.48,4223
20.54,4203
20.6,4167
20.66,4182
20.72,4237
20.78,4148
20.84,3989
20.9,4031
20.96,4025
21.02,4186
21.08,4099
21.14,4054
21.2,4109
21.26,4174
21.32,4120
21.38,4111
21.44,4176
21.5,4327
21.56,4300
21.62,4426
21.68,4944
21.74,6716
21.8,7869
21.86,10404
21.92,18502
21.98,17834
22.04,11340
22.1,7817
22.16,5766
22.22,5577
22.28,5706
22.34,5021
22.4,4676
22.46,4432
22.52,3955
22.58,3775
22.64,3810
22.7,3811
22.76,3746
22.82,3630
22.88,3677
22.94,3742
23,3690
23.06,3565
23.12,3670
23.18,3665
23.24,3421
23.3,3574
23.36,3442
23.42,3594
23.48,3609
23.54,3595
23.6,3572
23.66,3543
23.72,3590
23.78,3696
23.84,3831
23.9,3767
23.96,3714
24.02,3634
24.08,3619
24.14,3549
24.2,3577
24.26,3557
24.32,3635
24.38,3866
24.44,4502
24.5,4429
24.56,3959
24.62,3619
24.68,3458
24.74,3371
24.8,3349
24.86,3362
24.92,3276
24.98,3310
25.04,3290
25.1,3251
25.16,3291
25.22,3344
25.28,3287
25.34,3402
25.4,3264
25.46,3381
25.52,3379
25.58,3279
25.64,3424
25.7,3646
25.76,4481
25.82,4488
25.88,3727
25.94,3480
26,3289
26.06,3253
26.12,3307
26.18,3124
26.24,3149
26.3,3020
26.36,3072
26.42,3078
26.48,3027
26.54,3099
26.6,3126
26.66,3062
26.72,3122
26.78,3160
26.84,3087
26.9,3109
26.96,3129
27.02,3439
27.08,4475
27.14,6156
27.2,5135
27.26,4522
27.32,4914
27.38,7646
27.44,6673
27.5,4471
27.56,3736
27.62,3499
27.68,3346
27.74,3045
27.8,3023
27.86,2993
27.92,2869
27.98,2979
28.04,3283
28.1,3443
28.16,3168
28.22,2968
28.28,2916
28.34,2876
28.4,2942
28.46,2822
28.52,2965
28.58,2941
28.64,3190
28.7,3699
28.76,3389
28.82,3055
28.88,2978
28.94,3050
29,2894
29.06,2824
29.12,2847
29.18,2855
29.24,2922
29.3,2808
29.36,2907
29.42,2977
29.48,2939
29.54,2906
29.6,2931
29.66,2952
29.72,2911
29.78,2922
29.84,2996
29.9,3089
29.96,3499
30.02,5406
30.08,11794
30.14,14320
30.2,14937
30.26,12679
30.32,20515
30.38,19455
30.44,11660
30.5,7820
30.56,5975
30.62,6168
30.68,6826
30.74,6504
30.8,5441
30.86,4504
30.92,3947
30.98,3450
31.04,3133
31.1,3129
31.16,3120
31.22,3009
31.28,2907
31.34,3122
31.4,3111
31.46,3120
31.52,3352
31.58,3463
31.64,4112
31.7,9982
31.76,17884
31.82,10374
31.88,6494
31.94,4904
32,4327
32.06,3926
32.12,3469
32.18,3278
32.24,4904
32.3,13432
32.36,19283
32.42,10886
32.48,6982
32.54,5509
32.6,3934
32.66,3239
32.72,3063
32.78,2815
32.84,2801
32.9,2613
32.96,2497
33.02,2467
33.08,2604
33.14,2462
33.2,2559
33.26,2482
33.32,2573
33.38,2544
33.44,2380
33.5,2494
33.56,2477
33.62,2432
33.68,2426
33.74,2441
33.8,2353
33.86,2450
33.92,2761
33.98,3731
34.04,3637
34.1,2988
34.16,2781
34.22,2716
34.28,2757
34.34,3100
34.4,3967
34.46,3433
34.52,2920
34.58,3054
34.64,3548
34.7,3914
34.76,3422
34.82,2832
34.88,2702
34.94,2484
35,2376
35.06,2384
35.12,2390
35.18,2422
35.24,2879
35.3,2899
35.36,3029
35.42,2776
35.48,2425
35.54,2384
35.6,2366
35.66,2394
35.72,2319
35.78,2224
35.84,2303
35.9,2311
35.96,2332
36.02,2235
36.08,2370
36.14,2455
36.2,2271
36.26,2255
36.32,2355
36.38,2281
36.44,2218
36.5,2208
36.56,2190
36.62,2166
36.68,2217
36.74,2337
36.8,2716
36.86,3480
36.92,3087
36.98,2722
37.04,3031
37.1,3057
37.16,3973
37.22,5525
37.28,4121
37.34,3216
37.4,2957
37.46,3439
37.52,3809
37.58,3054
37.64,2653
37.7,2829
37.76,2865
37.82,2522
37.88,2532
37.94,2363
38,2261
38.06,2153
38.12,2239
38.18,2161
38.24,2155
38.3,2186
38.36,2232
38.42,2163
38.48,2131
38.54,2133
38.6,2190
38.66,2246
38.72,2173
38.78,2189
38.84,2250
38.9,2299
38.96,2346
39.02,2448
39.08,3557
39.14,5639
39.2,4309
39.26,3388
39.32,2908
39.38,2755
39.44,3007
39.5,4272
39.56,3925
39.62,3800
39.68,3211
39.74,2632
39.8,2439
39.86,2412
39.92,2331
39.98,2455
40.04,3226
40.1,4424
40.16,3395
40.22,2798
40.28,3140
40.34,2970
40.4,2584
40.46,2491
40.52,2673
40.58,4055
40.64,5777
40.7,4017
40.76,3195
40.82,3423
40.88,3812
40.94,3224
41,2858
41.06,3146
41.12,3668
41.18,3687
41.24,3617
41.3,4776
41.36,5216
41.42,3794
41.48,3039
41.54,2830
41.6,2633
41.66,2476
41.72,2396
41.78,2253
41.84,2213
41.9,2226
41.96,2089
42.02,2121
42.08,2112
42.14,2120
42.2,2053
42.26,2101
42.32,2136
42.38,2050
42.44,2100
42.5,2060
42.56,2339
42.62,2228
42.68,2808
42.74,5222
42.8,5363
42.86,4036
42.92,3320
42.98,3022
43.04,3280
43.1,5036
43.16,4532
43.22,3352
43.28,2730
43.34,2460
43.4,2220
43.46,2237
43.52,2200
43.58,2157
43.64,2109
43.7,2050
43.76,2197
43.82,2375
43.88,2344
43.94,2200
44,2117
44.06,2071
44.12,2119
44.18,2168
44.24,2341
44.3,3574
44.36,6728
44.42,5434
44.48,4784
44.54,5254
44.6,4286
44.66,4998
44.72,8316
44.78,8419
44.84,5543
44.9,3911
44.96,3365
45.02,3042
45.08,2741
45.14,2555
45.2,2248
45.26,2168
45.32,2243
45.38,2236
45.44,2531
45.5,2914
45.56,2538
45.62,2237
45.68,2232
45.74,2190
45.8,2100
45.86,2010
45.92,2179
45.98,2436
46.04,2263
46.1,2089
46.16,2025
46.22,1993
46.28,2048
46.34,2006
46.4,1950
46.46,2067
46.52,2155
46.58,2306
46.64,2347
46.7,3467
46.76,3698
46.82,2960
46.88,2522
46.94,2180
47,2284
47.06,2118
47.12,2110
47.18,2068
47.24,2068
47.3,1923
47.36,1897
47.42,1860
47.48,1975
47.54,1875
47.6,1963
47.66,2330
47.72,2593
47.78,2577
47.84,2219
47.9,2102
47.96,2041
48.02,2021
48.08,1988
48.14,2064
48.2,2082
48.26,2115
48.32,2334
48.38,3597
48.44,3878
48.5,2778
48.56,2361
48.62,2426
48.68,2249
48.74,2592
48.8,4055
48.86,4314
48.92,3460
48.98,2947
49.04,2804
49.1,3326
49.16,3271
49.22,2835
49.28,2754
49.34,2923
49.4,4706
49.46,5066
49.52,4579
49.58,3945
49.64,3290
49.7,3405
49.76,2824
49.82,2616
49.88,2804
49.94,3407
50,2738
50.06,2372
50.12,2100
50.18,2154
50.24,2112
50.3,2010
50.36,2062
50.42,1932
50.48,1920
50.54,2080
50.6,1974
50.66,1892
50.72,1961
50.78,1957
50.84,1961
50.9,2091
50.96,2500
51.02,3186
51.08,3255
51.14,2662
51.2,2486
51.26,2272
51.32,2092
51.38,2073
51.44,2089
51.5,2322
51.56,2531
51.62,2347
51.68,2144
51.74,2044
51.8,2342
51.86,2711
51.92,2446
51.98,2160
52.04,2166
52.1,2086
52.16,2183
52.22,2251
52.28,2251
52.34,3112
52.4,4593
52.46,4621
52.52,3541
52.58,2759
52.64,2720
52.7,3197
52.76,3185
52.82,2737
52.88,2724
52.94,3066
53,3444
53.06,2853
53.12,2529
53.18,2370
53.24,2117
53.3,2073
53.36,2003
53.42,1993
53.48,1950
53.54,1961
53.6,1961
53.66,2108
53.72,2062
53.78,2352
53.84,2148
53.9,2338
53.96,2392
54.02,2288
54.08,2039
54.14,2013
54.2,1957
54.26,1924
54.32,2002
54.38,2553
54.44,2278
54.5,2084
54.56,2129
54.62,2144
54.68,2045
54.74,2025
54.8,1903
54.86,1901
54.92,1897
54.98,2087
55.04,2213
55.1,2158
55.16,2017
55.22,1983
55.28,2019
55.34,2321
55.4,3478
55.46,3536
55.52,3636
55.58,3539
55.64,4355
55.7,4489
55.76,3292
55.82,2845
55.88,2543
55.94,2502
56,2404
56.06,2332
56.12,2357
56.18,2348
56.24,2814
56.3,3360
56.36,2854
56.42,2266
56.48,2485
56.54,2824
56.6,2393
56.66,2158
56.72,2091
56.78,2115
56.84,2375
56.9,4087
56.96,4279
57.02,3196
57.08,2566
57.14,2291
57.2,2287
57.26,2258
57.32,2093
57.38,2028
57.44,1949
57.5,2104
57.56,2497
57.62,2831
57.68,2885
57.74,2620
57.8,2413
57.86,2303
57.92,2188
57.98,2145
58.04,2291
58.1,2223
58.16,2122
58.22,2357
58.28,2529
58.34,2288
58.4,2546
58.46,2509
58.52,2294
58.58,2096
58.64,2014
58.7,1995
58.76,2063
58.82,2079
58.88,1892
58.94,1860
59,1840
59.06,1872
59.12,1978
59.18,1930
59.24,1916
59.3,2387
59.36,3304
59.42,3607
59.48,2817
59.54,2511
59.6,2423
59.66,3037
59.72,2994
59.78,2359
59.84,2243
59.9,2320
59.96,2619
60.02,3819
60.08,3322
60.14,2682
60.2,2686
60.26,2412
60.32,2224
60.38,2185
60.44,2186
60.5,2300
60.56,2284
60.62,2150
60.68,2145
60.74,2104
60.8,2025
60.86,2015
60.92,2012
60.98,2028
61.04,1936
61.1,1907
61.16,1895
61.22,1832
61.28,1823
61.34,1857
61.4,1781
61.46,1804
61.52,1881
61.58,1868
61.64,1986
61.7,2501
61.76,2620
61.82,2295
61.88,2098
61.94,2184
62,2103
62.06,2047
62.12,2671
62.18,2804
62.24,2704
62.3,2352
62.36,2338
62.42,2274
62.48,2180
62.54,2444
62.6,2801
62.66,2589
62.72,2336
62.78,2433
62.84,2416
62.9,2508
62.96,2411
63.02,2299
63.08,2542
63.14,2675
63.2,2408
63.26,2259
63.32,2097
63.38,2040
63.44,2017
63.5,1930
63.56,1971
63.62,1968
63.68,2004
63.74,1979
63.8,1859
63.86,1902
63.92,1909
63.98,1844
64.04,1945
64.1,2023
64.16,2258
64.22,2675
64.28,2441
64.34,2317
64.4,2294
64.46,2500
64.52,2477
64.58,2210
64.64,2030
64.7,1986
64.76,1926
64.82,2002
64.88,1942
64.94,1851
65,2010
65.06,2081
65.12,1994
65.18,1995
65.24,1994
65.3,1976
65.36,1980
65.42,1905
65.48,1928
65.54,2137
65.6,2688
65.66,2497
65.72,2132
65.78,2007
65.84,2026
65.9,2007
65.96,1940
66.02,1879
66.08,1948
66.14,1919
66.2,2035
66.26,2675
66.32,3761
66.38,3003
66.44,2474
66.5,2123
66.56,2278
66.62,2173
66.68,2111
66.74,2108
66.8,2017
66.86,1923
66.92,1945
66.98,1989
67.04,1898
67.1,1909
67.16,1948
67.22,1819
67.28,1942
67.34,2042
67.4,2049
67.46,1934
67.52,1969
67.58,2176
67.64,2635
67.7,2804
67.76,2404
67.82,2081
67.88,2062
67.94,2005
68,2046
68.06,2009
68.12,2124
68.18,2065
68.24,2146
68.3,1872
68.36,1912
68.42,1893
68.48,1917
68.54,2097
68.6,2283
68.66,2289
68.72,2045
68.78,2019
68.84,2088
68.9,1981
68.96,2089
69.02,2153
69.08,2044
69.14,2006
69.2,1979
69.26,1825
69.32,1952
69.38,1806
69.44,1857
69.5,1955
69.56,2035
69.62,1982
69.68,1846
69.74,1972
69.8,1901
69.86,1916
69.92,2028
69.98,2645
70.04,2710
70.1,2463
70.16,2505
70.22,2293
70.28,2112
70.34,2172
70.4,2150
70.46,2087
70.52,2055
70.58,2061
70.64,1970
70.7,2012
70.76,2246
70.82,2232
70.88,2089
70.94,2146
71,2163
71.06,2096
71.12,2174
71.18,2416
71.24,2578
71.3,2430
71.36,2832
71.42,2745
71.48,2822
71.54,3095
71.6,2650
71.66,2284
71.72,2211
71.78,2275
71.84,2555
71.9,2832
71.96,2737
72.02,2685
72.08,2586
72.14,2554
72.2,2484
72.26,2360
72.32,2620
72.38,2760
72.44,2457
72.5,2555
72.56,2272
72.62,2174
72.68,2097
72.74,2137
72.8,1991
72.86,2006
72.92,1972
72.98,2088
73.04,2139
73.1,2767
73.16,2828
73.22,2653
73.28,2563
73.34,2218
73.4,2106
73.46,2161
73.52,2127
73.58,2033
73.64,1998
73.7,2096
73.76,1931
73.82,1946
73.88,1930
73.94,1848
74,1918
74.06,2011
74.12,2126
74.18,1903
74.24,2033
74.3,2036
74.36,2280
74.42,2567
74.48,2691
74.54,3188
74.6,3475
74.66,2990
74.72,2712
74.78,2682
74.84,2821
74.9,2547
74.96,2390
75.02,2274
75.08,2198
75.14,2595
75.2,2664
75.26,2299
75.32,2026
75.38,2089
75.44,1993
75.5,1997
75.56,1994
75.62,1909
75.68,1879
75.74,1882
75.8,1855
75.86,1930
75.92,1921
75.98,1803
76.04,1787
76.1,1862
76.16,1845
76.22,1817
76.28,1862
76.34,1839
76.4,1728
76.46,1815
76.52,1936
76.58,2007
76.64,2166
76.7,2228
76.76,2077
76.82,1940
76.88,2013
76.94,1979
77,1879
77.06,1888
77.12,1877
77.18,1843
77.24,1911
77.3,1804
77.36,1881
77.42,1875
77.48,1822
77.54,1899
77.6,1874
77.66,1928
77.72,1958
77.78,1990
77.84,2447
77.9,2775
77.96,2717
78.02,2285
78.08,2176
78.14,2193
78.2,2158
78.26,2009
78.32,2103
78.38,2157
78.44,1995
78.5,2101
78.56,2320
78.62,2263
78.68,2096
78.74,2260
78.8,2304
78.86,2641
78.92,2850
78.98,2798
79.04,2531
79.1,2301
79.16,2130
79.22,2191
79.28,2221
79.34,2414
79.4,2592
79.46,2282
79.52,2230
79.58,2109
79.64,2084
79.7,2265
79.76,2355
79.82,2167
79.88,2130
79.94,2305
80,2447
80.06,2408
80.12,2328
80.18,2198
80.24,2250
80.3,2378
80.36,2227
80.42,2134
80.48,2099
80.54,2155
80.6,2332
80.66,2238
80.72,2122
80.78,2038
80.84,2040
80.9,2056
80.96,2088
81.02,2104
81.08,2140
81.14,2167
81.2,2349
81.26,2146
81.32,2074
81.38,2045
81.44,1919
81.5,1907
81.56,1942
81.62,1958
81.68,1953
81.74,1859
81.8,1909
81.86,1905
81.92,1937
81.98,1956
82.04,1931
82.1,2090
82.16,1988
82.22,1979
82.28,1911
82.34,1932
82.4,1965
82.46,1956
82.52,1980
82.58,1868
82.64,1910
82.7,2026
82.76,2181
82.82,2075
82.88,1954
82.94,1924
83,1919
83.06,1932
83.12,1950
83.18,2040
83.24,2106
83.3,2201
83.36,2230
83.42,2254
83.48,2329
83.54,2145
83.6,2257
83.66,2044
83.72,2116
83.78,2046
83.84,1985
83.9,1963
83.96,1954
84.02,2021
84.08,2160
84.14,2239
84.2,2279
84.26,2387
84.32,2035
84.38,2053
84.44,2065
84.5,2084
84.56,1987
84.62,2007
84.68,1922
84.74,1960
84.8,1921
84.86,2016
84.92,2158
84.98,2384
85.04,2358
85.1,2261
85.16,2111
85.22,2156
85.28,2219
85.34,2222
85.4,2086
85.46,2050
85.52,2004
85.58,1959
85.64,1943
85.7,2165
85.76,2082
85.82,2083
85.88,2043
85.94,2002
86,1985
86.06,1946
86.12,2032
86.18,2120
86.24,2079
86.3,1995
86.36,1958
86.42,1907
86.48,2137
86.54,2125
86.6,2150
86.66,2082
86.72,2096
86.78,2226
86.84,2043
86.9,2072
86.96,2046
87.02,2170
87.08,2369
87.14,2245
87.2,2097
87.26,1997
87.32,1978
87.38,1989
87.44,1945
87.5,1898
87.56,1885
87.62,1928
87.68,1950
87.74,2018
87.8,1904
87.86,2015
87.92,2092
87.98,2001
88.04,2011
88.1,2068
88.16,2094
88.22,2229
88.28,2265
88.34,2583
88.4,2300
88.46,2160
88.52,2132
88.58,2071
88.64,2206
88.7,2323
88.76,2307
88.82,2276
88.88,2308
88.94,2191
89,2017
89.06,2071
89.12,2111
89.18,2209
89.24,2482
89.3,2272
89.36,2256
89.42,2297
89.48,2180
89.54,2243
89.6,2471
89.66,2424
89.72,2423
89.78,2649
89.84,2406
89.9,2253
89.96,2152