File: data/xrd_icdd_PDF/00-060-0758 (PD3).csv
5.0066,905
5.0976,753
5.1886,620
5.2796,504
5.3706,492
5.4616,438
5.5526,378
5.6436,395
5.7346,355
5.8256,354
5.9166,341
6.0076,355
6.0986,309
6.1896,339
6.2806,322
6.3716,353
6.4626,381
6.5536,399
6.6446,438
6.7356,464
6.8266,474
6.9176,495
7.0086,513
7.0996,491
7.1906,488
7.2816,398
7.3726,332
7.4636,313
7.5546,273
7.6456,198
7.7366,174
7.8276,162
7.9186,123
8.0096,104
8.1006,82
8.1916,66
8.2826,69
8.3736,58
8.4646,45
8.5556,56
8.6466,59
8.7376,42
8.8286,42
8.9196,55
9.0106,45
9.1016,46
9.1926,40
9.2836,35
9.3746,33
9.4656,28
9.5566,42
9.6476,28
9.7386,33
9.8296,38
9.9206,27
10.0116,33
10.1026,38
10.1936,28
10.2846,42
10.3756,32
10.4666,24
10.5576,17
10.6486,33
10.7396,26
10.8306,25
10.9216,27
11.0126,30
11.1036,24
11.1946,39
11.2856,33
11.3766,27
11.4676,32
11.5586,40
11.6496,34
11.7406,33
11.8316,42
11.9226,34
12.0136,32
12.1046,30
12.1956,39
12.2866,28
12.3776,40
12.4686,31
12.5596,35
12.6506,39
12.7416,39
12.8326,41
12.9236,36
13.0146,45
13.1056,31
13.1966,35
13.2876,32
13.3786,46
13.4696,45
13.5606,34
13.6516,49
13.7426,38
13.8336,43
13.9246,58
14.0156,80
14.1066,86
14.1976,58
14.2886,45
14.3796,49
14.4706,54
14.5616,57
14.6526,47
14.7436,52
14.8346,54
14.9256,53
15.0166,65
15.1076,52
15.1986,50
15.2896,55
15.3806,76
15.4716,110
15.5626,294
15.6536,465
15.7446,114
15.8356,60
15.9266,72
16.0176,132
16.1086,102
16.1996,60
16.2906,56
16.3816,51
16.4726,50
16.5636,54
16.6546,45
16.7456,63
16.8366,50
16.9276,48
17.0186,65
17.1096,54
17.2006,49
17.2916,68
17.3826,54
17.4736,57
17.5646,66
17.6556,47
17.7466,49
17.8376,52
17.9286,73
18.0196,87
18.1106,44
18.2016,71
18.2926,53
18.3836,52
18.4746,58
18.5656,50
18.6566,58
18.7476,55
18.8386,52
18.9296,47
19.0206,58
19.1116,49
19.2026,61
19.2936,58
19.3846,56
19.4756,52
19.5666,47
19.6576,39
19.7486,53
19.8396,56
19.9306,53
20.0216,49
20.1126,50
20.2036,41
20.2946,53
20.3856,46
20.4766,63
20.5676,59
20.6586,39
20.7496,41
20.8406,55
20.9316,51
21.0226,57
21.1136,50
21.2046,40
21.2956,66
21.3866,54
21.4776,50
21.5686,50
21.6596,40
21.7506,57
21.8416,51
21.9326,51
22.0236,59
22.1146,70
22.2056,48
22.2966,54
22.3876,53
22.4786,46
22.5696,50
22.6606,50
22.7516,54
22.8426,53
22.9336,42
23.0246,48
23.1156,51
23.2066,51
23.2976,45
23.3886,48
23.4796,54
23.5706,50
23.6616,55
23.7526,51
23.8436,52
23.9346,48
24.0256,46
24.1166,57
24.2076,110
24.2986,313
24.3896,788
24.4806,786
24.5716,221
24.6626,87
24.7536,65
24.8446,52
24.9356,65
25.0266,58
25.1176,61
25.2086,53
25.2996,61
25.3906,59
25.4816,61
25.5726,53
25.6636,47
25.7546,50
25.8456,54
25.9366,50
26.0276,83
26.1186,114
26.2096,305
26.3006,321
26.3916,102
26.4826,75
26.5736,76
26.6646,106
26.7556,81
26.8466,62
26.9376,50
27.0286,42
27.1196,57
27.2106,52
27.3016,64
27.3926,61
27.4836,49
27.5746,49
27.6656,56
27.7566,63
27.8476,77
27.9386,88
28.0296,72
28.1206,63
28.2116,63
28.3026,64
28.3936,75
28.4846,63
28.5756,86
28.6666,89
28.7576,141
28.8486,271
28.9396,1177
29.0306,3095
29.1216,1764
29.2126,607
29.3036,195
29.3946,114
29.4856,96
29.5766,77
29.6676,96
29.7586,81
29.8496,91
29.9406,89
30.0316,84
30.1226,87
30.2136,96
30.3046,77
30.3956,82
30.4866,95
30.5776,92
30.6686,121
30.7596,172
30.8506,335
30.9416,1534
31.0326,3956
31.1236,2213
31.2146,474
31.3056,160
31.3966,133
31.4876,266
31.5786,464
31.6696,228
31.7606,99
31.8516,69
31.9426,74
32.0336,82
32.1246,93
32.2156,91
32.3066,208
32.3976,477
32.4886,338
32.5796,137
32.6706,73
32.7616,70
32.8526,75
32.9436,72
33.0346,85
33.1256,91
33.2166,82
33.3076,76
33.3986,70
33.4896,66
33.5806,59
33.6716,85
33.7626,93
33.8536,137
33.9446,625
34.0356,1825
34.1266,1158
34.2176,290
34.3086,101
34.3996,74
34.4906,70
34.5816,60
34.6726,65
34.7636,55
34.8546,56
34.9456,63
35.0366,51
35.1276,72
35.2186,70
35.3096,68
35.4006,127
35.4916,379
35.5826,1351
35.6736,957
35.7646,264
35.8556,91
35.9466,87
36.0376,83
36.1286,97
36.2196,78
36.3106,70
36.4016,61
36.4926,67
36.5836,60
36.6746,49
36.7656,56
36.8566,45
36.9476,51
37.0386,55
37.1296,52
37.2206,47
37.3116,58
37.4026,58
37.4936,63
37.5846,77
37.6756,90
37.7666,87
37.8576,64
37.9486,82
38.0396,106
38.1306,408
38.2216,561
38.3126,311
38.4036,129
38.4946,132
38.5856,164
38.6766,121
38.7676,70
38.8586,54
38.9496,43
39.0406,53
39.1316,44
39.2226,53
39.3136,52
39.4046,48
39.4956,55
39.5866,44
39.6776,51
39.7686,53
39.8596,60
39.9506,68
40.0416,71
40.1326,79
40.2236,252
40.3146,494
40.4056,392
40.4966,181
40.5876,64
40.6786,59
40.7696,55
40.8606,52
40.9516,53
41.0426,52
41.1336,52
41.2246,65
41.3156,59
41.4066,63
41.4976,69
41.5886,127
41.6796,438
41.7706,808
41.8616,637
41.9526,250
42.0436,104
42.1346,70
42.2256,41
42.3166,62
42.4076,55
42.4986,50
42.5896,57
42.6806,50
42.7716,54
42.8626,62
42.9536,52
43.0446,41
43.1356,67
43.2266,53
43.3176,52
43.4086,67
43.4996,67
43.5906,66
43.6816,58
43.7726,45
43.8636,58
43.9546,45
44.0456,52
44.1366,33
44.2276,47
44.3186,66
44.4096,150
44.5006,352
44.5916,327
44.6826,224
44.7736,92
44.8646,67
44.9556,55
45.0466,56
45.1376,60
45.2286,55
45.3196,63
45.4106,72
45.5016,65
45.5926,71
45.6836,121
45.7746,284
45.8656,745
45.9566,911
46.0476,597
46.1386,277
46.2296,95
46.3206,66
46.4116,65
46.5026,72
46.5936,63
46.6846,59
46.7756,74
46.8666,94
46.9576,167
47.0486,478
47.1396,515
47.2306,386
47.3216,182
47.4126,347
47.5036,449
47.5946,324
47.6856,144
47.7766,71
47.8676,65
47.9586,53
48.0496,69
48.1406,64
48.2316,80
48.3226,62
48.4136,62
48.5046,90
48.5956,72
48.6866,72
48.7776,59
48.8686,49
48.9596,49
49.0506,44
49.1416,56
49.2326,59
49.3236,62
49.4146,100
49.5056,109
49.5966,93
49.6876,104
49.7786,134
49.8696,140
49.9606,145
50.0516,132
50.1426,152
50.2336,125
50.3246,95
50.4156,54
50.5066,51
50.5976,67
50.6886,95
50.7796,56
50.8706,69
50.9616,60
51.0526,60
51.1436,77
51.2346,161
51.3256,179
51.4166,170
51.5076,124
51.5986,77
51.6896,64
51.7806,55
51.8716,57
51.9626,75
52.0536,102
52.1446,180
52.2356,315
52.3266,230
52.4176,172
52.5086,123
52.5996,70
52.6906,90
52.7816,105
52.8726,103
52.9636,79
53.0546,71
53.1456,55
53.2366,63
53.3276,53
53.4186,59
53.5096,60
53.6006,60
53.6916,73
53.7826,94
53.8736,165
53.9646,384
54.0556,545
54.1466,418
54.2376,243
54.3286,119
54.4196,103
54.5106,151
54.6016,314
54.6926,351
54.7836,372
54.8746,388
54.9656,300
55.0566,195
55.1476,124
55.2386,67
55.3296,68
55.4206,70
55.5116,133
55.6026,168
55.6936,206
55.7846,374
55.8756,541
55.9666,412
56.0576,257
56.1486,122
56.2396,75
56.3306,49
56.4216,52
56.5126,51
56.6036,55
56.6946,41
56.7856,56
56.8766,51
56.9676,52
57.0586,48
57.1496,60
57.2406,59
57.3316,85
57.4226,80
57.5136,86
57.6046,85
57.6956,78
57.7866,91
57.8776,65
57.9686,52
58.0596,58
58.1506,71
58.2416,67
58.3326,71
58.4236,69
58.5146,65
58.6056,66
58.6966,42
58.7876,45
58.8786,63
58.9696,54
59.0606,61
59.1516,65
59.2426,74
59.3336,69
59.4246,68
59.5156,77
59.6066,81
59.6976,137
59.7886,299
59.8796,599
59.9706,509
60.0616,474
60.1526,438
60.2436,463
60.3346,515
60.4256,509
60.5166,389
60.6076,268
60.6986,141
60.7896,90
60.8806,56
60.9716,60
61.0626,55
61.1536,57
61.2446,56
61.3356,76
61.4266,115
61.5176,123
61.6086,104
61.6996,90
61.7906,57
61.8816,57
61.9726,47
62.0636,50
62.1546,59
62.2456,52
62.3366,63
62.4276,80
62.5186,169
62.6096,308
62.7006,269
62.7916,233
62.8826,159
62.9736,66
63.0646,63
63.1556,60
63.2466,72
63.3376,69
63.4286,77
63.5196,59
63.6106,69
63.7016,44
63.7926,46
63.8836,48
63.9746,56
64.0656,38
64.1566,56
64.2476,45
64.3386,49
64.4296,47
64.5206,56
64.6116,72
64.7026,78
64.7936,94
64.8846,93
64.9756,100
65.0666,104
65.1576,97
65.2486,101
65.3396,187
65.4306,196
65.5216,186
65.6126,159
65.7036,150
65.7946,215
65.8856,324
65.9766,301
66.0676,295
66.1586,270
66.2496,210
66.3406,198
66.4316,215
66.5226,162
66.6136,117
66.7046,103
66.7956,69
66.8866,55
66.9776,59
67.0686,58
67.1596,63
67.2506,70
67.3416,113
67.4326,105
67.5236,126
67.6146,166
67.7056,183
67.7966,199
67.8876,191
67.9786,156
68.0696,132
68.1606,97
68.2516,72
68.3426,79
68.4336,76
68.5246,61
68.6156,61
68.7066,63
68.7976,56
68.8886,55
68.9796,45
69.0706,40
69.1616,44
69.2526,40
69.3436,53
69.4346,50
69.5256,44
69.6166,81
69.7076,83
69.7986,73
69.8896,69
69.9806,55
70.0716,63
70.1626,58
70.2536,80
70.3446,83
70.4356,82
70.5266,71
70.6176,68
70.7086,48
70.7996,42
70.8906,50
70.9816,43
71.0726,41
71.1636,51
71.2546,72
71.3456,83
71.4366,125
71.5276,144
71.6186,151
71.7096,114
71.8006,123
71.8916,85
71.9826,59
72.0736,65
72.1646,66
72.2556,45
72.3466,61
72.4376,57
72.5286,60
72.6196,52
72.7106,46
72.8016,42
72.8926,36
72.9836,43
73.0746,48
73.1656,49
73.2566,45
73.3476,41
73.4386,43
73.5296,45
73.6206,41
73.7116,57
73.8026,57
73.8936,67
73.9846,58
74.0756,68
74.1666,50
74.2576,54
74.3486,58
74.4396,49
74.5306,40
74.6216,45
74.7126,46
74.8036,43
74.8946,51
74.9856,51
75.0766,54
75.1676,58
75.2586,71
75.3496,59
75.4406,58
75.5316,53
75.6226,69
75.7136,44
75.8046,75
75.8956,70
75.9866,75
76.0776,88
76.1686,141
76.2596,217
76.3506,179
76.4416,156
76.5326,156
76.6236,110
76.7146,89
76.8056,70
76.8966,92
76.9876,89
77.0786,84
77.1696,86
77.2606,54
77.3516,54
77.4426,49
77.5336,47
77.6246,44
77.7156,43
77.8066,34
77.8976,42
77.9886,47
78.0796,60
78.1706,62
78.2616,72
78.3526,90
78.4436,91
78.5346,93
78.6256,72
78.7166,62
78.8076,67
78.8986,63
78.9896,83
79.0806,76
79.1716,61
79.2626,61
79.3536,55
79.4446,52
79.5356,53
79.6266,52
79.7176,67
79.8086,94
79.8996,99
79.9906,88
80.0816,82
80.1726,97
80.2636,93
80.3546,112
80.4456,144
80.5366,144
80.6276,146
80.7186,140
80.8096,135
80.9006,102
80.9916,78
81.0826,80
81.1736,73
81.2646,58
81.3556,58
81.4466,71
81.5376,83
81.6286,109
81.7196,149
81.8106,179
81.9016,169
81.9926,168
82.0836,146
82.1746,128
82.2656,94
82.3566,63
82.4476,69
82.5386,57
82.6296,69
82.7206,61
82.8116,71
82.9026,77
82.9936,95
83.0846,92
83.1756,82
83.2666,62
83.3576,59
83.4486,47
83.5396,55
83.6306,47
83.7216,47
83.8126,44
83.9036,42
83.9946,47
84.0856,51
84.1766,59
84.2676,61
84.3586,59
84.4496,47
84.5406,61
84.6316,47
84.7226,52
84.8136,53
84.9046,60
84.9956,57
85.0866,58
85.1776,34
85.2686,50
85.3596,63
85.4506,60
85.5416,62
85.6326,60
85.7236,57
85.8146,50
85.9056,64
85.9966,51
86.0876,59
86.1786,58
86.2696,94
86.3606,87
86.4516,99
86.5426,99
86.6336,108
86.7246,88
86.8156,86
86.9066,84
86.9976,89
87.0886,99
87.1796,89
87.2706,79
87.3616,92
87.4526,74
87.5436,70
87.6346,77
87.7256,80
87.8166,75
87.9076,84
87.9986,77
88.0896,80
88.1806,113
88.2716,111
88.3626,137
88.4536,143
88.5446,117
88.6356,109
88.7266,105
88.8176,109
88.9086,87
88.9996,93
89.0906,64
89.1816,73
89.2726,75
89.3636,80
89.4546,74
89.5456,75
89.6366,66
89.7276,71
89.8186,64
89.9096,45
90.0006,61
90.0916,51
90.1826,57
90.2736,52
90.3646,48
90.4556,51
90.5466,74
90.6376,108
90.7286,144
90.8196,146
90.9106,174
91.0016,159
91.0926,154
91.1836,118
91.2746,102
91.3656,102
91.4566,65
91.5476,87
91.6386,112
91.7296,127
91.8206,102
91.9116,81
92.0026,80
92.0936,65
92.1846,67
92.2756,44
92.3666,41
92.4576,56
92.5486,44
92.6396,70
92.7306,71
92.8216,79
92.9126,68
93.0036,74
93.0946,55
93.1856,67
93.2766,64
93.3676,45
93.4586,43
93.5496,42
93.6406,46
93.7316,41
93.8226,45
93.9136,55
94.0046,57
94.0956,44
94.1866,68
94.2776,44
94.3686,58
94.4596,43
94.5506,48
94.6416,43
94.7326,47
94.8236,44
94.9146,52
95.0056,45
95.0966,45
95.1876,46
95.2786,62
95.3696,44
95.4606,70
95.5516,87
95.6426,86
95.7336,119
95.8246,147
95.9156,139
96.0066,137
96.0976,126
96.1886,106
96.2796,94
96.3706,81
96.4616,71
96.5526,50
96.6436,67
96.7346,76
96.8256,53
96.9166,67
97.0076,59
97.0986,55
97.1896,46
97.2806,51
97.3716,50
97.4626,51
97.5536,50
97.6446,59
97.7356,52
97.8266,55
97.9176,63
98.0086,73
98.0996,64
98.1906,70
98.2816,56
98.3726,84
98.4636,79
98.5546,82
98.6456,71
98.7366,82
98.8276,93
98.9186,88
99.0096,97
99.1006,88
99.1916,71
99.2826,80
99.3736,80
99.4646,84
99.5556,81
99.6466,76
99.7376,79
99.8286,84
99.9196,57
100.0106,62
100.1016,73
100.1926,41
100.2836,47
100.3746,52
100.4656,52
100.5566,70
100.6476,78
100.7386,115
100.8296,105
100.9206,106
101.0116,120
101.1026,111
101.1936,101
101.2846,75
101.3756,94
101.4666,81
101.5576,68
101.6486,70
101.7396,81
101.8306,81
101.9216,122
102.0126,102
102.1036,134
102.1946,111
102.2856,129
102.3766,137
102.4676,126
102.5586,105
102.6496,107
102.7406,90
102.8316,85
102.9226,67
103.0136,64
103.1046,71
103.1956,76
103.2866,73
103.3776,94
103.4686,73
103.5596,95
103.6506,70
103.7416,84
103.8326,67
103.9236,68
104.0146,64
104.1056,54
104.1966,48
104.2876,66
104.3786,75
104.4696,63
104.5606,68
104.6516,56
104.7426,79
104.8336,64
104.9246,58
105.0156,63
105.1066,66
105.1976,57
105.2886,76
105.3796,53
105.4706,60
105.5616,56
105.6526,55
105.7436,46
105.8346,60
105.9256,86
106.0166,63
106.1076,97
106.1986,83
106.2896,85
106.3806,105
106.4716,104
106.5626,102
106.6536,96
106.7446,94
106.8356,58
106.9266,80
107.0176,72
107.1086,74
107.1996,59
107.2906,71
107.3816,67
107.4726,67
107.5636,74
107.6546,56
107.7456,56
107.8366,52
107.9276,56
108.0186,49
108.1096,63
108.2006,66
108.2916,49
108.3826,47
108.4736,49
108.5646,56
108.6556,60
108.7466,42
108.8376,54
108.9286,52
109.0196,47
109.1106,52
109.2016,58
109.2926,51
109.3836,55
109.4746,37
109.5656,53
109.6566,41
109.7476,65
109.8386,75
109.9296,44
110.0206,47
110.1116,53
110.2026,54
110.2936,43
110.3846,46
110.4756,52
110.5666,49
110.6576,45
110.7486,58
110.8396,54
110.9306,44
111.0216,61
111.1126,71
111.2036,75
111.2946,73
111.3856,77
111.4766,75
111.5676,88
111.6586,109
111.7496,109
111.8406,84
111.9316,77
112.0226,70
112.1136,81
112.2046,64
112.2956,69
112.3866,58
112.4776,45
112.5686,60
112.6596,66
112.7506,68
112.8416,60
112.9326,82
113.0236,69
113.1146,72
113.2056,87
113.2966,80
113.3876,71
113.4786,88
113.5696,79
113.6606,79
113.7516,76
113.8426,70
113.9336,73
114.0246,70
114.1156,79
114.2066,72
114.2976,86
114.3886,97
114.4796,102
114.5706,113
114.6616,130
114.7526,120
114.8436,126
114.9346,124
115.0256,114
115.1166,112
115.2076,126
115.2986,122
115.3896,107
115.4806,104
115.5716,102
115.6626,86
115.7536,95
115.8446,104
115.9356,104
116.0266,93
116.1176,101
116.2086,91
116.2996,86
116.3906,102
116.4816,72
116.5726,93
116.6636,85
116.7546,78
116.8456,77
116.9366,73
117.0276,81
117.1186,78
117.2096,67
117.3006,58
117.3916,66
117.4826,69
117.5736,68
117.6646,62
117.7556,82
117.8466,72
117.9376,66
118.0286,70
118.1196,52
118.2106,62
118.3016,57
118.3926,56
118.4836,53
118.5746,53
118.6656,47
118.7566,66
118.8476,57
118.9386,48
119.0296,50
119.1206,72
119.2116,59
119.3026,63
119.3936,63
119.4846,68
119.5756,73
119.6666,58
119.7576,62
119.8486,55
119.9396,77
120.0306,79
120.1216,78
120.2126,48
120.3036,72
120.3946,54
120.4856,60
120.5766,50
120.6676,61
120.7586,61
120.8496,61
120.9406,58
121.0316,46
121.1226,46
121.2136,50
121.3046,48
121.3956,44
121.4866,40
121.5776,59
121.6686,49
121.7596,51
121.8506,50
121.9416,45
122.0326,64
122.1236,46
122.2146,44
122.3056,56
122.3966,43
122.4876,53
122.5786,54
122.6696,60
122.7606,60
122.8516,62
122.9426,68
123.0336,77
123.1246,83
123.2156,97
123.3066,92
123.3976,89
123.4886,83
123.5796,82
123.6706,73
123.7616,78
123.8526,76
123.9436,63
124.0346,66
124.1256,65
124.2166,72
124.3076,61
124.3986,66
124.4896,67
124.5806,60
124.6716,65
124.7626,63
124.8536,66
124.9446,60
125.0356,83
125.1266,85
125.2176,93
125.3086,92
125.3996,109
125.4906,105
125.5816,97
125.6726,99
125.7636,89
125.8546,94
125.9456,94
126.0366,70
126.1276,92
126.2186,82
126.3096,93
126.4006,110
126.4916,84
126.5826,83
126.6736,85
126.7646,92
126.8556,100
126.9466,90
127.0376,98
127.1286,101
127.2196,96
127.3106,87
127.4016,83
127.4926,101
127.5836,82
127.6746,81
127.7656,79
127.8566,88
127.9476,73
128.0386,76
128.1296,65
128.2206,86
128.3116,70
128.4026,55
128.4936,64
128.5846,63
128.6756,67
128.7666,73
128.8576,56
128.9486,48
129.0396,48
129.1306,46
129.2216,46
129.3126,47
129.4036,55
129.4946,66
129.5856,49
129.6766,67
129.7676,62
129.8586,52
129.9496,69
130.0406,61
130.1316,73
130.2226,61
130.3136,64
130.4046,71
130.4956,80
130.5866,74
130.6776,82
130.7686,81
130.8596,84
130.9506,80
131.0416,106
131.1326,94
131.2236,75
131.3146,100
131.4056,100
131.4966,101
131.5876,91
131.6786,90
131.7696,73
131.8606,92
131.9516,61
132.0426,64
132.1336,66
132.2246,72
132.3156,77
132.4066,75
132.4976,81
132.5886,73
132.6796,87
132.7706,91
132.8616,109
132.9526,109
133.0436,116
133.1346,127
133.2256,133
133.3166,131
133.4076,114
133.4986,146
133.5896,148
133.6806,138
133.7716,141
133.8626,109
133.9536,123
134.0446,97
134.1356,114
134.2266,98
134.3176,86
134.4086,87
134.4996,74
134.5906,68
134.6816,59
134.7726,77
134.8636,82
134.9546,76
135.0456,78
135.1366,81
135.2276,70
135.3186,73
135.4096,68
135.5006,67
135.5916,80
135.6826,73
135.7736,51
135.8646,66
135.9556,55
136.0466,56
136.1376,52
136.2286,60
136.3196,69
136.4106,63
136.5016,66
136.5926,71
136.6836,72
136.7746,78
136.8656,68
136.9566,69
137.0476,87
137.1386,64
137.2296,89
137.3206,87
137.4116,88
137.5026,89
137.5936,107
137.6846,84
137.7756,102
137.8666,93
137.9576,88
138.0486,99
138.1396,112
138.2306,88
138.3216,106
138.4126,85
138.5036,103
138.5946,99
138.6856,81
138.7766,102
138.8676,85
138.9586,89
139.0496,77
139.1406,88
139.2316,83
139.3226,90
139.4136,100
139.5046,98
139.5956,97
139.6866,93
139.7776,109
139.8686,111
139.9596,126
139.9986,131