File: data/xrd_icdd_PDF/00-073-0364 (PD3).csv
10,15
10.06,15
10.12,8
10.18,11
10.24,13
10.3,15
10.36,14
10.42,16
10.48,11
10.54,17
10.6,16
10.66,8
10.72,15
10.78,14
10.84,18
10.9,13
10.96,10
11.02,15
11.08,16
11.14,15
11.2,7
11.26,13
11.32,10
11.38,20
11.44,17
11.5,17
11.56,9
11.62,10
11.68,16
11.74,18
11.8,12
11.86,5
11.92,11
11.98,14
12.04,10
12.1,6
12.16,13
12.22,8
12.28,11
12.34,7
12.4,11
12.46,18
12.52,13
12.58,9
12.64,15
12.7,19
12.76,11
12.82,11
12.88,13
12.94,6
13,10
13.06,11
13.12,11
13.18,11
13.24,8
13.3,9
13.36,14
13.42,13
13.48,8
13.54,15
13.6,13
13.66,2
13.72,9
13.78,12
13.84,10
13.9,8
13.96,10
14.02,8
14.08,8
14.14,8
14.2,7
14.26,9
14.32,13
14.38,14
14.44,6
14.5,7
14.56,6
14.62,10
14.68,8
14.74,8
14.8,10
14.86,7
14.92,9
14.98,8
15.04,12
15.1,10
15.16,11
15.22,13
15.28,10
15.34,3
15.4,11
15.46,5
15.52,10
15.58,9
15.64,6
15.7,10
15.76,15
15.82,11
15.88,8
15.94,7
16,9
16.06,14
16.12,9
16.18,9
16.24,15
16.3,12
16.36,9
16.42,8
16.48,9
16.54,4
16.6,8
16.66,12
16.72,6
16.78,9
16.84,13
16.9,7
16.96,8
17.02,15
17.08,4
17.14,10
17.2,3
17.26,10
17.32,9
17.38,8
17.44,9
17.5,9
17.56,12
17.62,9
17.68,10
17.74,11
17.8,16
17.86,26
17.92,39
17.98,42
18.04,22
18.1,9
18.16,9
18.22,5
18.28,11
18.34,8
18.4,10
18.46,12
18.52,10
18.58,9
18.64,9
18.7,7
18.76,4
18.82,6
18.88,9
18.94,13
19,9
19.06,9
19.12,6
19.18,7
19.24,3
19.3,7
19.36,4
19.42,5
19.48,5
19.54,4
19.6,6
19.66,2
19.72,9
19.78,9
19.84,10
19.9,8
19.96,6
20.02,3
20.08,15
20.14,4
20.2,9
20.26,2
20.32,7
20.38,7
20.44,4
20.5,4
20.56,6
20.62,5
20.68,4
20.74,5
20.8,5
20.86,5
20.92,9
20.98,4
21.04,8
21.1,2
21.16,2
21.22,4
21.28,11
21.34,6
21.4,5
21.46,6
21.52,3
21.58,5
21.64,3
21.7,4
21.76,6
21.82,8
21.88,5
21.94,6
22,5
22.06,2
22.12,7
22.18,6
22.24,4
22.3,5
22.36,7
22.42,3
22.48,5
22.54,7
22.6,3
22.66,7
22.72,9
22.78,7
22.84,2
22.9,7
22.96,8
23.02,5
23.08,3
23.14,8
23.2,4
23.26,6
23.32,3
23.38,2
23.44,1
23.5,4
23.56,5
23.62,6
23.68,7
23.74,3
23.8,2
23.86,5
23.92,1
23.98,7
24.04,4
24.1,3
24.16,1
24.22,2
24.28,1
24.34,6
24.4,9
24.46,9
24.52,5
24.58,4
24.64,4
24.7,6
24.76,5
24.82,8
24.88,3
24.94,4
25,5
25.06,7
25.12,5
25.18,5
25.24,10
25.3,7
25.36,3
25.42,4
25.48,5
25.54,3
25.6,7
25.66,5
25.72,5
25.78,8
25.84,5
25.9,6
25.96,6
26.02,7
26.08,10
26.14,3
26.2,6
26.26,1
26.32,9
26.38,4
26.44,8
26.5,8
26.56,8
26.62,9
26.68,6
26.74,13
26.8,6
26.86,16
26.92,6
26.98,20
27.04,18
27.1,17
27.16,26
27.22,40
27.28,81
27.34,110
27.4,228
27.46,421
27.52,717
27.58,1275
27.64,1450
27.7,1086
27.76,472
27.82,115
27.88,52
27.94,41
28,28
28.06,24
28.12,13
28.18,15
28.24,17
28.3,14
28.36,15
28.42,10
28.48,14
28.54,8
28.6,12
28.66,9
28.72,11
28.78,9
28.84,5
28.9,7
28.96,9
29.02,8
29.08,9
29.14,8
29.2,6
29.26,11
29.32,16
29.38,27
29.44,42
29.5,75
29.56,136
29.62,218
29.68,194
29.74,119
29.8,46
29.86,14
29.92,8
29.98,12
30.04,7
30.1,6
30.16,10
30.22,10
30.28,2
30.34,7
30.4,6
30.46,6
30.52,7
30.58,9
30.64,2
30.7,7
30.76,6
30.82,6
30.88,5
30.94,8
31,5
31.06,3
31.12,2
31.18,8
31.24,2
31.3,4
31.36,4
31.42,4
31.48,7
31.54,7
31.6,3
31.66,3
31.72,2
31.78,4
31.84,5
31.9,7
31.96,5
32.02,4
32.08,2
32.14,4
32.2,8
32.26,4
32.32,7
32.38,4
32.44,4
32.5,7
32.56,6
32.62,11
32.68,4
32.74,7
32.8,5
32.86,26
32.92,53
32.98,61
33.04,141
33.1,247
33.16,287
33.22,209
33.28,104
33.34,42
33.4,12
33.46,9
33.52,6
33.58,6
33.64,3
33.7,9
33.76,10
33.82,5
33.88,11
33.94,4
34,3
34.06,5
34.12,6
34.18,5
34.24,5
34.3,5
34.36,1
34.42,10
34.48,1
34.54,9
34.6,4
34.66,5
34.72,3
34.78,7
34.84,2
34.9,4
34.96,3
35.02,4
35.08,5
35.14,1
35.2,5
35.26,4
35.32,2
35.38,7
35.44,7
35.5,2
35.56,6
35.62,3
35.68,6
35.74,4
35.8,9
35.86,4
35.92,3
35.98,0
36.04,6
36.1,2
36.16,4
36.22,4
36.28,9
36.34,8
36.4,11
36.46,14
36.52,13
36.58,16
36.64,5
36.7,7
36.76,4
36.82,9
36.88,1
36.94,6
37,2
37.06,1
37.12,3
37.18,9
37.24,2
37.3,1
37.36,7
37.42,4
37.48,2
37.54,2
37.6,4
37.66,2
37.72,8
37.78,13
37.84,12
37.9,43
37.96,61
38.02,74
38.08,69
38.14,29
38.2,29
38.26,12
38.32,6
38.38,5
38.44,2
38.5,3
38.56,0
38.62,4
38.68,2
38.74,3
38.8,5
38.86,4
38.92,3
38.98,2
39.04,3
39.1,6
39.16,5
39.22,3
39.28,3
39.34,4
39.4,3
39.46,0
39.52,4
39.58,2
39.64,4
39.7,7
39.76,8
39.82,4
39.88,4
39.94,4
40,4
40.06,3
40.12,3
40.18,3
40.24,4
40.3,6
40.36,2
40.42,1
40.48,2
40.54,2
40.6,5
40.66,9
40.72,6
40.78,2
40.84,2
40.9,3
40.96,5
41.02,5
41.08,2
41.14,7
41.2,5
41.26,5
41.32,2
41.38,2
41.44,4
41.5,1
41.56,4
41.62,0
41.68,2
41.74,6
41.8,3
41.86,8
41.92,7
41.98,3
42.04,2
42.1,5
42.16,8
42.22,4
42.28,7
42.34,6
42.4,4
42.46,4
42.52,3
42.58,0
42.64,6
42.7,5
42.76,5
42.82,5
42.88,5
42.94,2
43,5
43.06,5
43.12,4
43.18,6
43.24,6
43.3,4
43.36,6
43.42,7
43.48,4
43.54,5
43.6,12
43.66,14
43.72,16
43.78,18
43.84,16
43.9,7
43.96,8
44.02,5
44.08,5
44.14,7
44.2,12
44.26,5
44.32,4
44.38,4
44.44,4
44.5,5
44.56,12
44.62,9
44.68,15
44.74,11
44.8,26
44.86,48
44.92,104
44.98,228
45.04,355
45.1,411
45.16,313
45.22,189
45.28,110
45.34,36
45.4,13
45.46,12
45.52,11
45.58,6
45.64,8
45.7,9
45.76,7
45.82,4
45.88,4
45.94,7
46,4
46.06,5
46.12,6
46.18,10
46.24,4
46.3,5
46.36,6
46.42,5
46.48,3
46.54,5
46.6,4
46.66,6
46.72,4
46.78,6
46.84,4
46.9,3
46.96,5
47.02,5
47.08,5
47.14,4
47.2,6
47.26,10
47.32,13
47.38,14
47.44,34
47.5,91
47.56,141
47.62,168
47.68,140
47.74,83
47.8,42
47.86,18
47.92,7
47.98,7
48.04,5
48.1,5
48.16,3
48.22,11
48.28,5
48.34,6
48.4,9
48.46,3
48.52,6
48.58,3
48.64,6
48.7,5
48.76,8
48.82,4
48.88,5
48.94,5
49,4
49.06,3
49.12,3
49.18,5
49.24,4
49.3,0
49.36,4
49.42,9
49.48,1
49.54,3
49.6,6
49.66,2
49.72,6
49.78,3
49.84,6
49.9,7
49.96,4
50.02,6
50.08,3
50.14,4
50.2,4
50.26,5
50.32,7
50.38,2
50.44,4
50.5,6
50.56,4
50.62,6
50.68,2
50.74,7
50.8,1
50.86,6
50.92,5
50.98,6
51.04,4
51.1,15
51.16,25
51.22,43
51.28,89
51.34,147
51.4,227
51.46,203
51.52,180
51.58,104
51.64,52
51.7,18
51.76,9
51.82,4
51.88,4
51.94,8
52,9
52.06,3
52.12,3
52.18,3
52.24,4
52.3,3
52.36,4
52.42,11
52.48,5
52.54,5
52.6,7
52.66,6
52.72,2
52.78,5
52.84,2
52.9,6
52.96,4
53.02,5
53.08,4
53.14,5
53.2,8
53.26,5
53.32,6
53.38,1
53.44,5
53.5,3
53.56,9
53.62,5
53.68,12
53.74,11
53.8,14
53.86,7
53.92,9
53.98,4
54.04,12
54.1,1
54.16,7
54.22,0
54.28,7
54.34,6
54.4,4
54.46,8
54.52,6
54.58,9
54.64,4
54.7,3
54.76,6
54.82,5
54.88,6
54.94,3
55,6
55.06,2
55.12,4
55.18,4
55.24,10
55.3,5
55.36,10
55.42,7
55.48,10
55.54,11
55.6,14
55.66,11
55.72,35
55.78,58
55.84,159
55.9,277
55.96,291
56.02,285
56.08,198
56.14,131
56.2,68
56.26,20
56.32,15
56.38,12
56.44,11
56.5,4
56.56,8
56.62,9
56.68,6
56.74,18
56.8,10
56.86,13
56.92,35
56.98,62
57.04,139
57.1,138
57.16,124
57.22,90
57.28,87
57.34,38
57.4,18
57.46,15
57.52,5
57.58,8
57.64,8
57.7,7
57.76,3
57.82,6
57.88,5
57.94,1
58,14
58.06,6
58.12,5
58.18,3
58.24,11
58.3,3
58.36,7
58.42,4
58.48,6
58.54,5
58.6,4
58.66,6
58.72,7
58.78,7
58.84,3
58.9,4
58.96,3
59.02,4
59.08,6
59.14,6
59.2,4
59.26,1
59.32,3
59.38,5
59.44,3
59.5,8
59.56,5
59.62,4
59.68,3
59.74,6
59.8,5
59.86,3
59.92,6
59.98,4
60.04,0
60.1,2
60.16,2
60.22,6
60.28,3
60.34,6
60.4,4
60.46,3
60.52,3
60.58,5
60.64,4
60.7,8
60.76,4
60.82,3
60.88,7
60.94,2
61,4
61.06,4
61.12,2
61.18,6
61.24,1
61.3,5
61.36,6
61.42,15
61.48,13
61.54,16
61.6,34
61.66,23
61.72,18
61.78,11
61.84,12
61.9,6
61.96,4
62.02,5
62.08,2
62.14,6
62.2,7
62.26,7
62.32,7
62.38,5
62.44,8
62.5,10
62.56,13
62.62,9
62.68,6
62.74,6
62.8,3
62.86,4
62.92,2
62.98,2
63.04,2
63.1,2
63.16,5
63.22,4
63.28,4
63.34,8
63.4,2
63.46,1
63.52,3
63.58,4
63.64,1
63.7,3
63.76,2
63.82,3
63.88,6
63.94,6
64,3
64.06,3
64.12,3
64.18,3
64.24,6
64.3,8
64.36,5
64.42,4
64.48,3
64.54,6
64.6,6
64.66,4
64.72,6
64.78,3
64.84,2
64.9,4
64.96,5
65.02,8
65.08,3
65.14,4
65.2,2
65.26,4
65.32,0
65.38,1
65.44,6
65.5,4
65.56,3
65.62,0
65.68,4
65.74,2
65.8,4
65.86,3
65.92,1
65.98,1
66.04,2
66.1,4
66.16,3
66.22,7
66.28,6
66.34,5
66.4,2
66.46,2
66.52,7
66.58,10
66.64,13
66.7,12
66.76,11
66.82,10
66.88,11
66.94,9
67,8
67.06,7
67.12,3
67.18,3
67.24,4
67.3,3
67.36,1
67.42,6
67.48,3
67.54,7
67.6,2
67.66,7
67.72,8
67.78,2
67.84,2
67.9,7
67.96,4
68.02,4
68.08,4
68.14,11
68.2,1
68.26,10
68.32,2
68.38,5
68.44,5
68.5,4
68.56,4
68.62,4
68.68,4
68.74,7
68.8,5
68.86,4
68.92,5
68.98,6
69.04,7
69.1,6
69.16,6
69.22,6
69.28,4
69.34,6
69.4,4
69.46,14
69.52,26
69.58,22
69.64,45
69.7,30
69.76,22
69.82,27
69.88,22
69.94,15
70,14
70.06,5
70.12,3
70.18,6
70.24,4
70.3,4
70.36,5
70.42,3
70.48,7
70.54,9
70.6,4
70.66,9
70.72,4
70.78,7
70.84,5
70.9,6
70.96,4
71.02,2
71.08,7
71.14,5
71.2,6
71.26,6
71.32,4
71.38,6
71.44,8
71.5,11
71.56,16
71.62,24
71.68,41
71.74,86
71.8,82
71.86,53
71.92,52
71.98,39
72.04,33
72.1,14
72.16,12
72.22,7
72.28,10
72.34,13
72.4,17
72.46,14
72.52,31
72.58,65
72.64,118
72.7,127
72.76,116
72.82,72
72.88,67
72.94,63
73,38
73.06,16
73.12,11
73.18,9
73.24,3
73.3,6
73.36,8
73.42,7
73.48,5
73.54,6
73.6,2
73.66,5
73.72,4
73.78,7
73.84,2
73.9,4
73.96,4
74.02,7
74.08,5
74.14,1
74.2,5
74.26,3
74.32,6
74.38,7
74.44,2
74.5,6
74.56,4
74.62,6
74.68,4
74.74,8
74.8,4
74.86,5
74.92,6
74.98,4
75.04,2
75.1,3
75.16,9
75.22,5
75.28,4
75.34,6
75.4,11
75.46,5
75.52,6
75.58,2
75.64,4
75.7,0
75.76,3
75.82,5
75.88,5
75.94,2
76,4
76.06,7
76.12,9
76.18,5
76.24,12
76.3,9
76.36,37
76.42,43
76.48,58
76.54,39
76.6,33
76.66,33
76.72,34
76.78,14
76.84,12
76.9,7
76.96,13
77.02,6
77.08,8
77.14,6
77.2,12
77.26,12
77.32,24
77.38,37
77.44,50
77.5,47
77.56,34
77.62,34
77.68,31
77.74,32
77.8,16
77.86,10
77.92,7
77.98,1
78.04,4
78.1,6
78.16,10
78.22,5
78.28,3
78.34,5
78.4,4
78.46,7
78.52,6
78.58,6
78.64,8
78.7,5
78.76,2
78.82,1
78.88,6
78.94,8
79,6
79.06,8
79.12,8
79.18,20
79.24,31
79.3,52
79.36,63
79.42,46
79.48,32
79.54,35
79.6,27
79.66,20
79.72,11
79.78,6
79.84,11
79.9,6
79.96,2
80,3