File: data/xrd_icdd_PDF/00-065-0318 (PD3).csv
9.945,1161
10.013,1166
10.081,1157
10.149,1139
10.217,1129
10.285,1118
10.353,1115
10.421,1107
10.489,1096
10.557,1102
10.625,1090
10.693,1070
10.761,1066
10.829,1071
10.897,1072
10.965,1052
11.033,1043
11.101,1039
11.169,1031
11.237,1027
11.305,1018
11.373,1017
11.441,1018
11.509,1009
11.577,1005
11.645,1003
11.713,989
11.781,992
11.849,989
11.917,986
11.985,975
12.053,960
12.121,961
12.189,953
12.257,944
12.325,938
12.393,937
12.461,932
12.529,928
12.597,928
12.665,936
12.733,938
12.801,934
12.869,958
12.937,987
13.005,1039
13.073,1148
13.141,1397
13.209,1443
13.277,1100
13.345,921
13.413,909
13.481,887
13.549,878
13.617,877
13.685,860
13.753,856
13.821,855
13.889,841
13.957,837
14.025,834
14.093,831
14.161,832
14.229,820
14.297,807
14.365,804
14.433,806
14.501,800
14.569,787
14.637,785
14.705,788
14.773,783
14.841,778
14.909,772
14.977,771
15.045,770
15.113,767
15.181,765
15.249,765
15.317,762
15.385,756
15.453,752
15.521,748
15.589,744
15.657,744
15.725,739
15.793,740
15.861,735
15.929,733
15.997,738
16.065,725
16.133,718
16.201,716
16.269,708
16.337,702
16.405,699
16.473,696
16.541,695
16.609,695
16.677,691
16.745,686
16.813,682
16.881,678
16.949,674
17.017,674
17.085,669
17.153,669
17.221,665
17.289,663
17.357,669
17.425,655
17.493,646
17.561,650
17.629,645
17.697,644
17.765,643
17.833,637
17.901,639
17.969,634
18.037,629
18.105,626
18.173,627
18.241,620
18.309,621
18.377,620
18.445,610
18.513,604
18.581,601
18.649,603
18.717,608
18.785,603
18.853,600
18.921,599
18.989,591
19.057,590
19.125,597
19.193,600
19.261,593
19.329,592
19.397,595
19.465,608
19.533,627
19.601,655
19.669,731
19.737,926
19.805,1154
19.873,1006
19.941,703
20.009,618
20.077,597
20.145,578
20.213,564
20.281,562
20.349,555
20.417,546
20.485,545
20.553,542
20.621,539
20.689,541
20.757,537
20.825,536
20.893,529
20.961,524
21.029,529
21.097,526
21.165,521
21.233,519
21.301,522
21.369,528
21.437,521
21.505,511
21.573,519
21.641,517
21.709,516
21.777,513
21.845,507
21.913,507
21.981,510
22.049,504
22.117,495
22.185,497
22.253,495
22.321,494
22.389,491
22.457,499
22.525,495
22.593,490
22.661,494
22.729,490
22.797,492
22.865,497
22.933,497
23.001,503
23.069,517
23.137,538
23.205,544
23.273,535
23.341,532
23.409,529
23.477,513
23.545,502
23.613,499
23.681,494
23.749,495
23.817,510
23.885,530
23.953,584
24.021,748
24.089,1306
24.157,1489
24.225,894
24.293,550
24.361,508
24.429,488
24.497,483
24.565,479
24.633,480
24.701,485
24.769,491
24.837,499
24.905,488
24.973,468
25.041,458
25.109,451
25.177,448
25.245,450
25.313,452
25.381,449
25.449,451
25.517,453
25.585,451
25.653,459
25.721,465
25.789,471
25.857,487
25.925,500
25.993,506
26.061,515
26.129,537
26.197,575
26.265,645
26.333,790
26.401,1123
26.469,1791
26.537,2188
26.605,2110
26.673,3579
26.741,6568
26.809,5807
26.877,2543
26.945,1164
27.013,771
27.081,542
27.149,504
27.217,475
27.285,435
27.353,426
27.421,430
27.489,420
27.557,422
27.625,429
27.693,429
27.761,431
27.829,429
27.897,427
27.965,424
28.033,418
28.101,420
28.169,427
28.237,434
28.305,445
28.373,443
28.441,436
28.509,433
28.577,428
28.645,428
28.713,427
28.781,419
28.849,427
28.917,430
28.985,429
29.053,431
29.121,428
29.189,427
29.257,420
29.325,418
29.393,423
29.461,428
29.529,443
29.597,475
29.665,501
29.733,523
29.801,524
29.869,517
29.937,527
30.005,536
30.073,550
30.141,579
30.209,619
30.277,691
30.345,836
30.413,1133
30.481,1830
30.549,3960
30.617,10693
30.685,14494
30.753,9481
30.821,4107
30.889,2111
30.957,1640
31.025,1241
31.093,947
31.161,755
31.229,647
31.297,591
31.365,543
31.433,512
31.501,498
31.569,490
31.637,485
31.705,466
31.773,447
31.841,447
31.909,447
31.977,440
32.045,435
32.113,429
32.181,426
32.249,418
32.317,414
32.385,417
32.453,422
32.521,431
32.589,447
32.657,490
32.725,586
32.793,802
32.861,1274
32.929,4309
32.997,8879
33.065,8011
33.133,3805
33.201,1579
33.269,1277
33.337,1138
33.405,890
33.473,736
33.541,740
33.609,1231
33.677,1935
33.745,1698
33.813,937
33.881,513
33.949,429
34.017,391
34.085,368
34.153,362
34.221,348
34.289,342
34.357,340
34.425,336
34.493,331
34.561,330
34.629,333
34.697,329
34.765,330
34.833,339
34.901,335
34.969,334
35.037,336
35.105,334
35.173,337
35.241,336
35.309,336
35.377,342
35.445,379
35.513,415
35.581,555
35.649,811
35.717,789
35.785,549
35.853,376
35.921,325
35.989,316
36.057,311
36.125,307
36.193,302
36.261,294
36.329,283
36.397,282
36.465,281
36.533,280
36.601,276
36.669,273
36.737,275
36.805,277
36.873,274
36.941,269
37.009,266
37.077,270
37.145,272
37.213,269
37.281,273
37.349,271
37.417,272
37.485,278
37.553,276
37.621,275
37.689,278
37.757,280
37.825,278
37.893,269
37.961,263
38.029,262
38.097,264
38.165,266
38.233,266
38.301,264
38.369,260
38.437,264
38.505,270
38.573,269
38.641,271
38.709,289
38.777,312
38.845,306
38.913,293
38.981,285
39.049,282
39.117,289
39.185,291
39.253,294
39.321,315
39.389,340
39.457,395
39.525,438
39.593,424
39.661,398
39.729,375
39.797,385
39.865,426
39.933,501
40.001,650
40.069,978
40.137,1693
40.205,2403
40.273,2282
40.341,1613
40.409,999
40.477,667
40.545,552
40.613,515
40.681,520
40.749,560
40.817,684
40.885,967
40.953,1154
41.021,1007
41.089,729
41.157,504
41.225,408
41.293,373
41.361,345
41.429,326
41.497,312
41.565,310
41.633,304
41.701,295
41.769,299
41.837,297
41.905,296
41.973,304
42.041,309
42.109,316
42.177,330
42.245,346
42.313,359
42.381,374
42.449,405
42.517,473
42.585,596
42.653,883
42.721,1845
42.789,2877
42.857,2632
42.925,1782
42.993,1007
43.061,576
43.129,453
43.197,379
43.265,340
43.333,314
43.401,293
43.469,284
43.537,274
43.605,270
43.673,263
43.741,260
43.809,260
43.877,254
43.945,254
44.013,256
44.081,254
44.149,251
44.217,253
44.285,254
44.353,259
44.421,267
44.489,266
44.557,276
44.625,275
44.693,265
44.761,260
44.829,250
44.897,252
44.965,254
45.033,255
45.101,251
45.169,246
45.237,247
45.305,245
45.373,241
45.441,240
45.509,236
45.577,239
45.645,248
45.713,247
45.781,251
45.849,254
45.917,255
45.985,252
46.053,257
46.121,261
46.189,262
46.257,267
46.325,274
46.393,282
46.461,290
46.529,311
46.597,345
46.665,398
46.733,502
46.801,732
46.869,1038
46.937,1096
47.005,945
47.073,807
47.141,738
47.209,929
47.277,2597
47.345,4278
47.413,3787
47.481,3262
47.549,2653
47.617,1884
47.685,1419
47.753,1122
47.821,1124
47.889,1037
47.957,807
48.025,622
48.093,439
48.161,389
48.229,370
48.297,351
48.365,336
48.433,324
48.501,318
48.569,333
48.637,366
48.705,382
48.773,371
48.841,348
48.909,323
48.977,299
49.045,278
49.113,267
49.181,255
49.249,246
49.317,258
49.385,259
49.453,243
49.521,234
49.589,226
49.657,222
49.725,217
49.793,217
49.861,218
49.929,218
49.997,221
50.065,222
50.133,218
50.201,217
50.269,219
50.337,218
50.405,222
50.473,222
50.541,223
50.609,221
50.677,216
50.745,216
50.813,214
50.881,210
50.949,211
51.017,212
51.085,211
51.153,210
51.221,209
51.289,212
51.357,216
51.425,220
51.493,229
51.561,225
51.629,234
51.697,271
51.765,317
51.833,317
51.901,292
51.969,266
52.037,239
52.105,233
52.173,236
52.241,240
52.309,240
52.377,251
52.445,270
52.513,291
52.581,323
52.649,385
52.717,491
52.785,723
52.853,1275
52.921,1855
52.989,1827
53.057,1556
53.125,1323
53.193,1147
53.261,1132
53.329,1005
53.397,826
53.465,659
53.533,499
53.601,427
53.669,402
53.737,458
53.805,505
53.873,444
53.941,397
54.009,339
54.077,286
54.145,276
54.213,284
54.281,302
54.349,328
54.417,382
54.485,451
54.553,478
54.621,436
54.689,384
54.757,339
54.825,324
54.893,352
54.961,482
55.029,721
55.097,1032
55.165,1506
55.233,1411
55.301,1075
55.369,876
55.437,543
55.505,401
55.573,353
55.641,338
55.709,332
55.777,317
55.845,297
55.913,275
55.981,255
56.049,240
56.117,236
56.185,233
56.253,235
56.321,239
56.389,231
56.457,228
56.525,229
56.593,226
56.661,224
56.729,219
56.797,221
56.865,231
56.933,238
57.001,257
57.069,283
57.137,335
57.205,420
57.273,588
57.341,1293
57.409,2734
57.477,2868
57.545,2206
57.613,1933
57.681,1190
57.749,695
57.817,534
57.885,429
57.953,350
58.021,296
58.089,264
58.157,241
58.225,226
58.293,218
58.361,209
58.429,206
58.497,205
58.565,208
58.633,217
58.701,226
58.769,256
58.837,280
58.905,289
58.973,351
59.041,465
59.109,471
59.177,404
59.245,369
59.313,304
59.381,246
59.449,229
59.517,220
59.585,216
59.653,227
59.721,242
59.789,264
59.857,317
59.925,403
59.993,491
60.061,495
60.129,439
60.197,392
60.265,330
60.333,274
60.401,250
60.469,247
60.537,235
60.605,215
60.673,207
60.741,196
60.809,185
60.877,179
60.945,176
61.013,174
61.081,173
61.149,170
61.217,166
61.285,170
61.353,173
61.421,175
61.489,175
61.557,176
61.625,181
61.693,186
61.761,191
61.829,202
61.897,218
61.965,233
62.033,246
62.101,242
62.169,229
62.237,217
62.305,202
62.373,192
62.441,181
62.509,178
62.577,177
62.645,174
62.713,174
62.781,174
62.849,174
62.917,174
62.985,176
63.053,178
63.121,182
63.189,186
63.257,192
63.325,203
63.393,222
63.461,257
63.529,306
63.597,404
63.665,650
63.733,1065
63.801,1214
63.869,1024
63.937,920
64.005,754
64.073,527
64.141,422
64.209,429
64.277,494
64.345,477
64.413,411
64.481,390
64.549,337
64.617,277
64.685,252
64.753,236
64.821,236
64.889,239
64.957,256
65.025,295
65.093,357
65.161,432
65.229,452
65.297,403
65.365,347
65.433,293
65.501,237
65.569,203
65.637,184
65.705,175
65.773,171
65.841,168
65.909,165
65.977,163
66.045,163
66.113,161
66.181,158
66.249,161
66.317,159
66.385,155
66.453,159
66.521,163
66.589,167
66.657,169
66.725,173
66.793,186
66.861,204
66.929,227
66.997,266
67.065,322
67.133,366
67.201,361
67.269,327
67.337,298
67.405,261
67.473,218
67.541,197
67.609,185
67.677,175
67.745,168
67.813,164
67.881,162
67.949,161
68.017,160
68.085,158
68.153,162
68.221,162
68.289,164
68.357,171
68.425,179
68.493,189
68.561,206
68.629,247
68.697,321
68.765,434
68.833,484
68.901,444
68.969,439
69.037,509
69.105,793
69.173,957
69.241,723
69.309,643
69.377,648
69.445,485
69.513,414
69.581,400
69.649,341
69.717,333
69.785,334
69.853,292
69.921,256
69.989,231
70.057,214
70.125,195
70.193,177
70.261,167
70.329,161
70.397,155
70.465,154
70.533,152
70.601,148
70.669,151
70.737,155
70.805,153
70.873,151
70.941,153
71.009,150
71.077,147
71.145,148
71.213,146
71.281,143
71.349,144
71.417,145
71.485,146
71.553,151
71.621,155
71.689,161
71.757,161
71.825,164
71.893,172
71.961,187
72.029,196
72.097,190
72.165,181
72.233,173
72.301,166
72.369,156
72.437,150
72.505,147
72.573,151
72.641,160
72.709,170
72.777,170
72.845,163
72.913,164
72.981,161
73.049,156
73.117,154
73.185,151
73.253,149
73.321,153
73.389,158
73.457,165
73.525,172
73.593,183
73.661,199
73.729,230
73.797,283
73.865,379
73.933,482
74.001,480
74.069,415
74.137,389
74.205,356
74.273,302
74.341,278
74.409,277
74.477,280
74.545,300
74.613,334
74.681,365
74.749,380
74.817,376
74.885,400
74.953,443
75.021,446
75.089,401
75.157,349
75.225,325
75.293,306
75.361,294
75.429,331
75.497,374
75.565,394
75.633,363
75.701,315
75.769,302
75.837,263
75.905,213
75.973,192
76.041,180
76.109,176
76.177,172
76.245,169
76.313,170
76.381,165
76.449,164
76.517,165
76.585,163
76.653,161
76.721,159
76.789,159
76.857,160
76.925,161
76.993,160
77.061,166
77.129,175
77.197,190
77.265,206
77.333,245
77.401,356
77.469,542
77.537,576
77.605,445
77.673,422
77.741,429
77.809,343
77.877,261
77.945,223
78.013,203
78.081,191
78.149,182
78.217,181
78.285,179
78.353,180
78.421,194
78.489,208
78.557,240
78.625,319
78.693,546
78.761,766
78.829,681
78.897,595
78.965,652
79.033,631
79.101,573
79.169,531
79.237,462
79.305,449
79.373,466
79.441,450
79.509,413
79.577,398
79.645,419
79.713,436
79.781,409
79.849,353
79.917,321
79.985,300
80.053,271
80.121,240
80.189,219
80.257,212
80.325,201
80.393,185
80.461,179
80.529,177
80.597,167
80.665,160
80.733,157
80.801,154
80.869,155
80.937,151
81.005,152
81.073,157
81.141,160
81.209,167
81.277,175
81.345,188
81.413,211
81.481,232
81.549,235
81.617,230
81.685,220
81.753,212
81.821,206
81.889,197
81.957,187
82.025,186
82.093,191
82.161,201
82.229,210
82.297,220
82.365,235
82.433,260
82.501,294
82.569,334
82.637,383
82.705,426
82.773,440
82.841,416
82.909,412
82.977,457
83.045,536
83.113,557
83.181,466
83.249,399
83.317,391
83.385,365
83.453,313
83.521,271
83.589,252
83.657,230
83.725,210
83.793,207
83.861,200
83.929,189
83.997,175
84.065,169
84.133,162
84.201,158
84.269,158
84.337,156
84.405,166
84.473,169
84.541,171
84.609,193
84.677,237
84.745,330
84.813,418
84.881,391
84.949,315
85.017,300
85.085,307
85.153,264
85.221,212
85.289,184
85.357,167
85.425,155
85.493,153
85.561,152
85.629,153
85.697,155
85.765,158
85.833,169
85.901,180
85.969,202
86.037,232
86.105,265
86.173,288
86.241,276
86.309,252
86.377,241
86.445,234
86.513,214
86.581,187
86.649,174
86.717,164
86.785,157
86.853,156
86.921,153
86.989,157
87.057,156
87.125,161
87.193,172
87.261,176
87.329,187
87.397,193
87.465,187
87.533,188
87.601,199
87.669,216
87.737,222
87.805,206
87.873,197
87.941,206
88.009,226
88.077,263
88.145,327
88.213,366
88.281,340
88.349,301
88.417,303
88.485,318
88.553,309
88.621,292
88.689,275
88.757,255
88.825,234
88.893,218
88.961,209
89.029,200
89.097,184
89.165,167
89.233,159
89.301,156
89.369,158
89.437,153
89.505,147
89.573,148
89.641,147
89.709,146
89.777,147
89.845,144
89.913,143
89.981,144
90.049,139
90.117,138
90.185,139
90.253,137
90.321,140
90.389,143
90.457,141
90.525,137
90.593,139
90.661,143
90.729,144
90.797,147
90.865,153
90.933,155
91.001,159
91.069,165
91.137,176
91.205,187
91.273,198
91.341,208
91.409,209
91.477,202
91.545,190
91.613,183
91.681,180
91.749,174
91.817,170
91.885,169
91.953,175
92.021,185
92.089,209
92.157,255
92.225,337
92.293,439
92.361,468
92.429,421
92.497,396
92.565,415
92.633,414
92.701,364
92.769,310
92.837,282
92.905,271
92.973,270
93.041,276
93.109,274
93.177,286
93.245,310
93.313,325
93.381,320
93.449,311
93.517,317
93.585,330
93.653,316
93.721,281
93.789,252
93.857,242
93.925,237
93.993,238
94.061,261
94.129,299
94.197,302
94.265,257
94.333,222
94.401,226
94.469,234
94.537,215
94.605,189
94.673,170
94.741,156
94.809,151
94.877,150
94.945,146
95.013,144
95.081,145
95.149,145
95.217,143
95.285,140
95.353,140
95.421,146
95.489,152
95.557,159
95.625,166
95.693,173
95.761,194
95.829,231
95.897,298
95.965,428
96.033,546
96.101,518
96.169,418
96.237,368
96.305,384
96.373,399
96.441,342
96.509,276
96.577,236
96.645,208
96.713,190
96.781,176
96.849,171
96.917,164
96.985,156
97.053,151
97.121,148
97.189,145
97.257,142
97.325,140
97.393,139
97.461,139
97.529,137
97.597,135
97.665,135
97.733,131
97.801,131
97.869,132
97.937,136
98.005,137
98.073,146
98.141,158
98.209,165
98.277,170
98.345,164
98.413,158
98.481,154
98.549,155
98.617,158
98.685,152
98.753,142
98.821,134
98.889,133
98.957,131
99.025,128
99.093,130
99.161,128
99.229,128
99.297,128
99.365,128
99.433,128
99.501,128
99.569,134
99.637,138
99.705,138
99.773,141
99.841,153
99.909,163
99.977,172
100.045,180
100.113,178
100.181,174
100.249,177
100.317,180
100.385,180
100.453,189
100.521,190
100.589,196
100.657,209
100.725,219
100.793,238
100.861,253
100.929,271
100.997,300
101.065,331
101.133,366
101.201,400
101.269,402
101.337,375
101.405,337
101.473,313
101.541,300
101.609,279
101.677,254
101.745,224
101.813,200
101.881,184
101.949,175
102.017,178
102.085,186
102.153,184
102.221,173
102.289,166
102.357,161
102.425,164
102.493,167
102.561,170
102.629,169
102.697,174
102.765,190
102.833,212
102.901,232
102.969,229
103.037,211
103.105,200
103.173,193
103.241,191
103.309,189
103.377,176
103.445,158
103.513,147
103.581,142
103.649,136
103.717,131
103.785,127
103.853,126
103.921,128
103.989,128
104.057,127
104.125,127
104.193,129
104.261,129
104.329,129
104.397,134
104.465,139
104.533,141
104.601,151
104.669,162
104.737,167
104.805,172
104.873,170
104.941,168
105.009,171
105.077,176
105.145,180
105.213,184
105.281,189
105.349,192
105.417,201
105.485,210
105.553,216
105.621,218
105.689,213
105.757,204
105.825,202
105.893,201
105.961,198
106.029,195
106.097,198
106.165,208
106.233,219
106.301,240
106.369,256
106.437,260
106.505,267
106.573,284
106.641,327
106.709,361
106.777,347
106.845,306
106.913,281
106.981,277
107.049,293
107.117,298
107.185,281
107.253,261
107.321,246
107.389,235
107.457,227
107.525,213
107.593,199
107.661,190
107.729,180
107.797,175
107.865,168
107.933,162
108.001,152
108.069,145
108.137,148
108.205,143
108.273,143
108.341,144
108.409,143
108.477,144
108.545,144
108.613,141
108.681,140
108.749,139
108.817,141
108.885,141
108.953,142
109.021,144
109.089,143
109.157,149
109.225,152
109.293,156
109.361,165
109.429,169
109.497,175
109.565,182
109.633,186
109.701,188
109.769,185
109.837,190
109.871,197