File: data/xrd_icdd_PDF/00-069-0233 (PD3).csv
10.04058,956
10.09698,1033
10.15338,1014
10.20978,975
10.26618,973
10.32258,879
10.37898,1009
10.43538,1038
10.49178,1055
10.54817,1077
10.60457,1057
10.66097,1008
10.71737,1037
10.77377,1094
10.83017,1075
10.88657,1038
10.94297,954
10.99937,1058
11.05577,1042
11.11217,1148
11.16857,1064
11.22497,1023
11.28137,993
11.33777,1124
11.39417,1061
11.45056,1046
11.50696,908
11.56336,975
11.61976,1081
11.67616,1062
11.73256,971
11.78896,1053
11.84536,997
11.90176,998
11.95816,1081
12.01456,1046
12.07096,1021
12.12736,1065
12.18376,1002
12.24016,1065
12.29656,1043
12.35296,962
12.40935,953
12.46575,946
12.52215,967
12.57855,1013
12.63495,1132
12.69135,955
12.74775,1017
12.80415,1018
12.86055,945
12.91695,977
12.97335,1097
13.02975,963
13.08615,1085
13.14255,973
13.19895,1008
13.25535,1009
13.31175,1016
13.36814,1047
13.42454,1002
13.48094,1081
13.53734,973
13.59374,1036
13.65014,1045
13.70654,1004
13.76294,1077
13.81934,1072
13.87574,997
13.93214,938
13.98854,1059
14.04494,1024
14.10134,1008
14.15774,1123
14.21414,1016
14.27054,1052
14.32693,1006
14.38333,1082
14.43973,985
14.49613,1006
14.55253,1059
14.60893,965
14.66533,1013
14.72173,1069
14.77813,999
14.83453,1004
14.89093,1024
14.94733,1063
15.00373,1081
15.06013,1091
15.11653,1070
15.17293,1044
15.22932,1101
15.28572,955
15.34212,1140
15.39852,1222
15.45492,1233
15.51132,1618
15.56772,2165
15.62412,1507
15.68052,1207
15.73692,1143
15.79332,1013
15.84972,1021
15.90612,972
15.96252,1006
16.01892,1019
16.07532,1051
16.13172,974
16.18811,996
16.24451,954
16.30091,964
16.35731,1105
16.41371,1095
16.47011,1010
16.52651,980
16.58291,943
16.63931,1007
16.69571,1016
16.75211,1025
16.80851,962
16.86491,1011
16.92131,1105
16.97771,986
17.03411,953
17.09051,1070
17.1469,1036
17.2033,1081
17.2597,1080
17.3161,966
17.3725,1007
17.4289,1002
17.4853,1061
17.5417,1022
17.5981,1052
17.6545,904
17.7109,1002
17.7673,1065
17.8237,977
17.8801,1051
17.9365,1098
17.9929,1061
18.04929,1014
18.10569,999
18.16209,1011
18.21849,1024
18.27489,1033
18.33129,978
18.38769,1125
18.44409,911
18.50049,1166
18.55689,990
18.61329,1082
18.66969,1016
18.72609,1033
18.78249,1072
18.83889,1009
18.89529,1032
18.95169,1032
19.00808,1040
19.06448,1091
19.12088,996
19.17728,1092
19.23368,997
19.29008,1098
19.34648,1053
19.40288,1118
19.45928,925
19.51568,1087
19.57208,980
19.62848,1058
19.68488,1039
19.74128,1013
19.79768,1004
19.85408,1060
19.91048,1029
19.96687,1037
20.02327,1025
20.07967,1008
20.13607,1160
20.19247,1011
20.24887,1053
20.30527,1078
20.36167,1033
20.41807,1096
20.47447,1053
20.53087,1076
20.58727,1056
20.64367,1031
20.70007,1045
20.75647,1008
20.81287,1127
20.86926,1015
20.92566,1102
20.98206,1132
21.03846,1065
21.09486,1080
21.15126,983
21.20766,1041
21.26406,989
21.32046,1119
21.37686,1062
21.43326,1012
21.48966,1112
21.54606,985
21.60246,1035
21.65886,1032
21.71526,1044
21.77166,1025
21.82805,965
21.88445,1038
21.94085,1050
21.99725,1017
22.05365,1031
22.11005,1077
22.16645,996
22.22285,1200
22.27925,947
22.33565,1063
22.39205,1015
22.44845,1002
22.50485,1037
22.56125,1083
22.61765,1090
22.67405,1040
22.73044,1128
22.78684,1276
22.84324,1767
22.89964,2141
22.95604,1277
23.01244,1040
23.06884,1008
23.12524,1130
23.18164,954
23.23804,1041
23.29444,1034
23.35084,946
23.40724,1000
23.46364,998
23.52004,1017
23.57644,1005
23.63284,1111
23.68923,935
23.74563,1050
23.80203,1004
23.85843,1032
23.91483,1026
23.97123,1033
24.02763,1062
24.08403,974
24.14043,1102
24.19683,984
24.25323,1072
24.30963,1016
24.36603,1078
24.42243,1081
24.47883,990
24.53523,1066
24.59163,1016
24.64802,1014
24.70442,1006
24.76082,1102
24.81722,1016
24.87362,1090
24.93002,1040
24.98642,1080
25.04282,1053
25.09922,1039
25.15562,964
25.21202,1010
25.26842,1132
25.32482,1036
25.38122,1102
25.43762,997
25.49402,1023
25.55042,1084
25.60681,1012
25.66321,1023
25.71961,1052
25.77601,1079
25.83241,1109
25.88881,989
25.94521,1126
26.00161,986
26.05801,1035
26.11441,1073
26.17081,986
26.22721,1121
26.28361,968
26.34001,1057
26.39641,1025
26.45281,1100
26.5092,958
26.5656,1038
26.622,1120
26.6784,966
26.7348,1137
26.7912,1014
26.8476,1016
26.904,1023
26.9604,1053
27.0168,1021
27.0732,1092
27.1296,1090
27.186,1058
27.2424,1017
27.2988,1006
27.3552,1007
27.4116,1019
27.46799,1024
27.52439,999
27.58079,1033
27.63719,1000
27.69359,997
27.74999,1004
27.80639,1075
27.86279,990
27.91919,1009
27.97559,1062
28.03199,1033
28.08839,1072
28.14479,1027
28.20119,1036
28.25759,1059
28.31399,1112
28.37038,966
28.42678,1100
28.48318,1009
28.53958,993
28.59598,1089
28.65238,1055
28.70878,1157
28.76518,1166
28.82158,1169
28.87798,1410
28.93438,1746
28.99078,2754
29.04718,5324
29.10358,6304
29.15998,2255
29.21638,1456
29.27278,1157
29.32917,1142
29.38557,1056
29.44197,979
29.49837,1065
29.55477,1035
29.61117,1024
29.66757,1076
29.72397,1099
29.78037,1116
29.83677,1321
29.89317,1417
29.94957,1851
30.00597,2529
30.06237,4846
30.11877,10495
30.17517,9983
30.23157,2666
30.28796,1512
30.34436,1209
30.40076,1193
30.45716,977
30.51356,979
30.56996,1039
30.62636,1044
30.68276,985
30.73916,1133
30.79556,1070
30.85196,1021
30.90836,1080
30.96476,1123
31.02116,1014
31.07756,1048
31.13396,1082
31.19036,1028
31.24675,1312
31.30315,1734
31.35955,3598
31.41595,7341
31.47235,4461
31.52875,2544
31.58515,1699
31.64155,1345
31.69795,1329
31.75435,1106
31.81075,1001
31.86715,1037
31.92355,1049
31.97995,1114
32.03635,1077
32.09275,912
32.14914,966
32.20554,1028
32.26194,975
32.31834,1018
32.37474,1023
32.43114,962
32.48754,1011
32.54394,1008
32.60034,1116
32.65674,1129
32.71314,1163
32.76954,1170
32.82594,1393
32.88234,1573
32.93874,1828
32.99514,2643
33.05154,5203
33.10793,13568
33.16433,18910
33.22073,5432
33.27713,2450
33.33353,1507
33.38993,1330
33.44633,1122
33.50273,1078
33.55913,1134
33.61553,1072
33.67193,989
33.72833,1080
33.78473,1041
33.84113,911
33.89753,1167
33.95393,1153
34.01033,986
34.06672,1037
34.12312,1104
34.17952,969
34.23592,1005
34.29232,992
34.34872,1156
34.40512,1012
34.46152,1006
34.51792,1047
34.57432,1083
34.63072,1002
34.68712,1076
34.74352,1095
34.79992,975
34.85632,1001
34.91272,976
34.96911,967
35.02551,968
35.08191,1016
35.13831,949
35.19471,1025
35.25111,958
35.30751,1030
35.36391,934
35.42031,1045
35.47671,1023
35.53311,1007
35.58951,1086
35.64591,1118
35.70231,1303
35.75871,1735
35.81511,1575
35.87151,1317
35.9279,1075
35.9843,1137
36.0407,1101
36.0971,1002
36.1535,926
36.2099,991
36.2663,1037
36.3227,986
36.3791,1001
36.4355,1007
36.4919,1138
36.5483,1064
36.6047,1047
36.6611,1006
36.7175,1173
36.7739,1047
36.83029,972
36.88669,977
36.94309,1031
36.99949,1016
37.05589,1105
37.11229,1023
37.16869,1194
37.22509,1254
37.28149,1619
37.33789,1922
37.39429,1263
37.45069,1059
37.50709,1012
37.56349,1114
37.61989,1294
37.67629,1596
37.73269,1154
37.78908,1168
37.84548,1051
37.90188,1004
37.95828,1097
38.01468,1062
38.07108,971
38.12748,1054
38.18388,1027
38.24028,982
38.29668,1001
38.35308,1098
38.40948,1011
38.46588,1006
38.52228,989
38.57868,1013
38.63508,1041
38.69148,1052
38.74787,958
38.80427,1008
38.86067,1048
38.91707,1070
38.97347,1027
39.02987,1034
39.08627,1081
39.14267,1057
39.19907,1131
39.25547,1040
39.31187,1030
39.36827,1055
39.42467,1040
39.48107,1007
39.53747,1016
39.59387,1206
39.65026,1092
39.70666,965
39.76306,1041
39.81946,1166
39.87586,1105
39.93226,1037
39.98866,945
40.04506,1028
40.10146,1034
40.15786,1070
40.21426,989
40.27066,1030
40.32706,1083
40.38346,1062
40.43986,1001
40.49626,1088
40.55266,972
40.60905,1019
40.66545,1035
40.72185,1048
40.77825,1066
40.83465,1003
40.89105,1069
40.94745,1034
41.00385,1011
41.06025,1015
41.11665,1074
41.17305,999
41.22945,1093
41.28585,995
41.34225,974
41.39865,986
41.45505,1035
41.51145,965
41.56784,981
41.62424,1052
41.68064,1041
41.73704,985
41.79344,1039
41.84984,1083
41.90624,1016
41.96264,1042
42.01904,1072
42.07544,994
42.13184,1065
42.18824,1057
42.24464,935
42.30104,919
42.35744,1081
42.41384,1042
42.47024,1007
42.52663,997
42.58303,991
42.63943,1058
42.69583,1011
42.75223,1001
42.80863,1061
42.86503,1061
42.92143,1102
42.97783,1181
43.03423,1035
43.09063,1290
43.14703,1408
43.20343,1536
43.25983,2745
43.31623,6402
43.37263,5465
43.42902,2352
43.48542,1765
43.54182,1453
43.59822,1172
43.65462,1031
43.71102,1142
43.76742,1122
43.82382,1085
43.88022,1064
43.93662,984
43.99302,1090
44.04942,1019
44.10582,1057
44.16222,1015
44.21862,1125
44.27502,1071
44.33142,947
44.38781,1039
44.44421,1116
44.50061,1074
44.55701,1027
44.61341,1059
44.66981,1096
44.72621,1067
44.78261,1156
44.83901,1063
44.89541,966
44.95181,1062
45.00821,1029
45.06461,1070
45.12101,1128
45.17741,1032
45.23381,1025
45.29021,1019
45.3466,1067
45.403,1044
45.4594,1095
45.5158,983
45.5722,956
45.6286,1127
45.685,1037
45.7414,1024
45.7978,1104
45.8542,1096
45.9106,1148
45.967,1018
46.0234,1023
46.0798,1112
46.1362,1136
46.1926,1048
46.24899,972
46.30539,999
46.36179,1072
46.41819,989
46.47459,940
46.53099,1062
46.58739,1071
46.64379,1175
46.70019,1511
46.75659,1675
46.81299,1227
46.86939,1106
46.92579,1018
46.98219,1014
47.03859,1079
47.09499,1080
47.15139,1006
47.20778,988
47.26418,1063
47.32058,998
47.37698,997
47.43338,1045
47.48978,1026
47.54618,1003
47.60258,966
47.65898,1082
47.71538,1002
47.77178,974
47.82818,1093
47.88458,1236
47.94098,1379
47.99738,1527
48.05378,1268
48.11017,1098
48.16657,1089
48.22297,984
48.27937,1031
48.33577,1065
48.39217,969
48.44857,1048
48.50497,1036
48.56137,1046
48.61777,1004
48.67417,997
48.73057,976
48.78697,1039
48.84337,1052
48.89977,1004
48.95617,1068
49.01257,1006
49.06896,943
49.12536,947
49.18176,1039
49.23816,952
49.29456,969
49.35096,1016
49.40736,1014
49.46376,1078
49.52016,1108
49.57656,1130
49.63296,1158
49.68936,1270
49.74576,1444
49.80216,2334
49.85856,2919
49.91496,1758
49.97136,1427
50.02775,1167
50.08415,1164
50.14055,975
50.19695,1183
50.25335,1013
50.30975,1042
50.36615,1068
50.42255,1054
50.47895,1065
50.53535,1115
50.59175,974
50.64815,1059
50.70455,1113
50.76095,1099
50.81735,1072
50.87375,1122
50.93015,1123
50.98654,1413
51.04294,2033
51.09934,2395
51.15574,1794
51.21214,1759
51.26854,1980
51.32494,2069
51.38134,2700
51.43774,3750
51.49414,6496
51.55054,10580
51.60694,5348
51.66334,2421
51.71974,1655
51.77614,1450
51.83254,1169
51.88893,1081
51.94533,1065
52.00173,1072
52.05813,1122
52.11453,1080
52.17093,1030
52.22733,967
52.28373,1042
52.34013,1107
52.39653,1000
52.45293,1006
52.50933,1112
52.56573,1026
52.62213,974
52.67853,1057
52.73493,1036
52.79133,996
52.84772,1097
52.90412,995
52.96052,1097
53.01692,1008
53.07332,998
53.12972,1060
53.18612,1008
53.24252,1134
53.29892,984
53.35532,1089
53.41172,1079
53.46812,967
53.52452,1028
53.58092,1078
53.63732,982
53.69372,1072
53.75012,1030
53.80651,997
53.86291,970
53.91931,1097
53.97571,1079
54.03211,1066
54.08851,1248
54.14491,1380
54.20131,1604
54.25771,1197
54.31411,1072
54.37051,1002
54.42691,1048
54.48331,1123
54.53971,997
54.59611,938
54.65251,988
54.7089,1008
54.7653,1047
54.8217,939
54.8781,958
54.9345,982
54.9909,1027
55.0473,1041
55.1037,961
55.1601,1050
55.2165,1025
55.2729,940
55.3293,986
55.3857,1014
55.4421,1026
55.4985,926
55.5549,1047
55.6113,1085
55.66769,1026
55.72409,1050
55.78049,1099
55.83689,1047
55.89329,1127
55.94969,1389
56.00609,1594
56.06249,1210
56.11889,1149
56.17529,1053
56.23169,965
56.28809,1036
56.34449,1086
56.40089,1098
56.45729,1001
56.51369,983
56.57008,1034
56.62648,1102
56.68288,923
56.73928,1111
56.79568,1117
56.85208,1219
56.90848,1586
56.96488,2414
57.02128,4539
57.07768,3597
57.13408,2035
57.19048,1608
57.24688,1347
57.30328,1147
57.35968,1155
57.41608,1098
57.47248,1149
57.52887,1140
57.58527,1038
57.64167,1090
57.69807,1107
57.75447,1026
57.81087,1048
57.86727,990
57.92367,1004
57.98007,988
58.03647,1023
58.09287,1021
58.14927,1075
58.20567,1040
58.26207,1001
58.31847,1064
58.37487,1007
58.43127,1035
58.48766,1009
58.54406,983
58.60046,1017
58.65686,1038
58.71326,997
58.76966,1052
58.82606,937
58.88246,1003
58.93886,1039
58.99526,1100
59.05166,1079
59.10806,991
59.16446,969
59.22086,1033
59.27726,1078
59.33366,1016
59.39005,1038
59.44645,976
59.50285,1068
59.55925,1033
59.61565,1100
59.67205,1056
59.72845,1094
59.78485,1208
59.84125,1714
59.89765,1573
59.95405,1290
60.01045,1145
60.06685,1101
60.12325,1171
60.17965,1288
60.23605,1564
60.29245,1621
60.34884,1297
60.40524,989
60.46164,1180
60.51804,1023
60.57444,1152
60.63084,989
60.68724,1185
60.74364,1188
60.80004,1291
60.85644,1741
60.91284,1687
60.96924,1338
61.02564,1092
61.08204,986
61.13844,1076
61.19484,1050
61.25124,1237
61.30763,1242
61.36403,1374
61.42043,1437
61.47683,1845
61.53323,2848
61.58963,5170
61.64603,5463
61.70243,2568
61.75883,1673
61.81523,1439
61.87163,1314
61.92803,1139
61.98443,1003
62.04083,1100
62.09723,1044
62.15363,1143
62.21003,936
62.26642,1054
62.32282,1050
62.37922,1358
62.43562,1333
62.49202,1490
62.54842,1688
62.60482,2435
62.66122,3432
62.71762,2414
62.77402,1483
62.83042,1231
62.88682,1088
62.94322,1123
62.99962,1075
63.05602,1035
63.11242,987
63.16881,1086
63.22521,1039
63.28161,1050
63.33801,1047
63.39441,1001
63.45081,1035
63.50721,1048
63.56361,1052
63.62001,991
63.67641,950
63.73281,964
63.78921,1080
63.84561,1078
63.90201,1085
63.95841,1022
64.01481,1005
64.07121,986
64.1276,1019
64.184,1016
64.2404,1096
64.2968,1001
64.3532,999
64.4096,974
64.466,993
64.5224,1055
64.5788,994
64.6352,1116
64.6916,1128
64.748,1198
64.8044,1644
64.8608,1775
64.9172,1376
64.9736,1138
65.02999,1155
65.08639,1195
65.14279,1011
65.19919,994
65.25559,1066
65.31199,1118
65.36839,1147
65.42479,1097
65.48119,1298
65.53759,1469
65.59399,1426
65.65039,1221
65.70679,1112
65.76319,937
65.81959,1054
65.87599,1024
65.93239,1076
65.98878,978
66.04518,1008
66.10158,1063
66.15798,1037
66.21438,1035
66.27078,1033
66.32718,999
66.38358,948
66.43998,1075
66.49638,1023
66.55278,979
66.60918,1007
66.66558,1074
66.72198,983
66.77838,1083
66.83478,1039
66.89118,999
66.94757,1006
67.00397,1025
67.06037,999
67.11677,971
67.17317,1078
67.22957,1060
67.28597,1050
67.34237,1101
67.39877,1054
67.45517,1081
67.51157,995
67.56797,1042
67.62437,1120
67.68077,998
67.73717,1141
67.79357,1267
67.84996,1629
67.90636,2012
67.96276,1566
68.01916,1242
68.07556,1232
68.13196,1416
68.18836,1386
68.24476,1312
68.30116,1218
68.35756,1067
68.41396,1132
68.47036,1082
68.52676,1124
68.58316,1055
68.63956,1113
68.69596,972
68.75236,1040
68.80875,962
68.86515,1123
68.92155,1073
68.97795,999
69.03435,1020
69.09075,1032
69.14715,1136
69.20355,1007
69.25995,1201
69.31635,1124
69.37275,1228
69.42915,1304
69.48555,1563
69.54195,1977
69.59835,1772
69.65475,1406
69.71115,1188
69.76754,1113
69.82394,1096
69.88034,1113
69.93674,1090
69.99314,1070
70.04954,1067
70.10594,994
70.16234,989
70.21874,1027
70.27514,1143
70.33154,1051
70.38794,1019
70.44434,1088
70.50074,1036
70.55714,1036
70.61354,1040
70.66993,1038
70.72633,1027
70.78273,1014
70.83913,972
70.89553,1024
70.95193,1070
71.00833,1077
71.06473,1060
71.12113,1058
71.17753,1075
71.23393,1023
71.29033,996
71.34673,1098
71.40313,1105
71.45953,1076
71.51593,936
71.57233,990
71.62872,967
71.68512,992
71.74152,1041
71.79792,1002
71.85432,931
71.91072,1133
71.96712,1016
72.02352,1060
72.07992,1205
72.13632,1176
72.19272,1090
72.24912,1046
72.30552,1033
72.36192,947
72.41832,975
72.47472,1118
72.53112,978
72.58751,990
72.64391,1071
72.70031,959
72.75671,1028
72.81311,1016
72.86951,1047
72.92591,1030
72.98231,1123
73.03871,1158
73.09511,1041
73.15151,1096
73.20791,1104
73.26431,1084
73.32071,1173
73.37711,1070
73.43351,1073
73.4899,1098
73.5463,1028
73.6027,1107
73.6591,1048
73.7155,1021
73.7719,988
73.8283,1033
73.8847,996
73.9411,1049
73.9975,1064
74.0539,1082
74.1103,1020
74.1667,1027
74.2231,1027
74.2795,1049
74.3359,1045
74.3923,1119
74.44869,1126
74.50509,1363
74.56149,1302
74.61789,1156
74.67429,1085
74.73069,1076
74.78709,1066
74.84349,1038
74.89989,1066
74.95629,1059
75.01269,1078
75.06909,1055
75.12549,1015
75.18189,1062
75.23829,1039
75.29469,1104
75.35109,988
75.40748,1068
75.46388,1061
75.52028,972
75.57668,1124
75.63308,1039
75.68948,1042
75.74588,1335
75.80228,1183
75.85868,1167
75.91508,1134
75.97148,1110
76.02788,1038
76.08428,1006
76.14068,999
76.19708,1003
76.25348,1003
76.30988,1020
76.36627,1086
76.42267,1119
76.47907,1076
76.53547,1015
76.59187,1001
76.64827,1049
76.70467,1060
76.76107,1016
76.81747,1013
76.87387,1051
76.93027,1079
76.98667,1082
77.04307,1070
77.09947,1001
77.15587,992
77.21227,1010
77.26866,1039
77.32506,1086
77.38146,1122
77.43786,1000
77.49426,986
77.55066,1014
77.60706,1045
77.66346,1060
77.71986,1090
77.77626,1086
77.83266,1063
77.88906,1108
77.94546,976
78.00186,997
78.05826,1071
78.11466,989
78.17106,1041
78.22745,1040
78.28385,1010
78.34025,1094
78.39665,1092
78.45305,1019
78.50945,1075
78.56585,1076
78.62225,1004
78.67865,1088
78.73505,1046
78.79145,943
78.84785,1024
78.90425,1047
78.96065,1020
79.01705,1075
79.07345,1101
79.12985,1063
79.18624,1107
79.24264,1038
79.29904,988
79.35544,988
79.41184,1011
79.46824,1155
79.52464,1064
79.58104,1088
79.63744,1014
79.69384,998
79.75024,926
79.80664,983
79.86304,1021
79.91944,1021
79.97584,1014
80.03224,966