File: data/xrd_icdd_PDF/00-049-0499 (PD3).csv
10,2290
10.06,2188
10.12,2258
10.18,2259
10.24,2206
10.3,2115
10.36,2195
10.42,2243
10.48,2100
10.54,2129
10.6,2133
10.66,2083
10.72,2165
10.78,2198
10.84,2080
10.9,2058
10.96,2061
11.02,2021
11.08,1943
11.14,2020
11.2,1942
11.26,1960
11.32,1999
11.38,1913
11.44,1927
11.5,1941
11.56,1894
11.62,1840
11.68,1864
11.74,1930
11.8,1838
11.86,1859
11.92,1888
11.98,1938
12.04,2140
12.1,2289
12.16,2759
12.22,3591
12.28,5005
12.34,3837
12.4,1936
12.46,1749
12.52,1747
12.58,1640
12.64,1660
12.7,1664
12.76,1655
12.82,1672
12.88,1812
12.94,2014
13,2316
13.06,3016
13.12,4289
13.18,6102
13.24,3751
13.3,1735
13.36,1513
13.42,1430
13.48,1411
13.54,1383
13.6,1349
13.66,1316
13.72,1277
13.78,1269
13.84,1247
13.9,1273
13.96,1215
14.02,1172
14.08,1138
14.14,1088
14.2,1185
14.26,1067
14.32,1137
14.38,1096
14.44,1109
14.5,1085
14.56,976
14.62,1010
14.68,983
14.74,964
14.8,969
14.86,977
14.92,984
14.98,1096
15.04,1234
15.1,1406
15.16,1709
15.22,1404
15.28,931
15.34,869
15.4,879
15.46,1035
15.52,2240
15.58,3589
15.64,4605
15.7,2141
15.76,968
15.82,860
15.88,743
15.94,747
16,736
16.06,750
16.12,742
16.18,782
16.24,778
16.3,812
16.36,773
16.42,809
16.48,924
16.54,1282
16.6,1572
16.66,1153
16.72,795
16.78,811
16.84,822
16.9,761
16.96,822
17.02,792
17.08,710
17.14,691
17.2,751
17.26,763
17.32,733
17.38,717
17.44,650
17.5,667
17.56,592
17.62,662
17.68,625
17.74,615
17.8,621
17.86,662
17.92,645
17.98,649
18.04,624
18.1,625
18.16,633
18.22,586
18.28,575
18.34,609
18.4,628
18.46,660
18.52,701
18.58,844
18.64,1087
18.7,1839
18.76,2950
18.82,5857
18.88,6658
18.94,2742
19,1103
19.06,872
19.12,760
19.18,568
19.24,572
19.3,561
19.36,543
19.42,567
19.48,517
19.54,524
19.6,607
19.66,548
19.72,563
19.78,559
19.84,540
19.9,599
19.96,591
20.02,654
20.08,808
20.14,1061
20.2,1616
20.26,2332
20.32,1582
20.38,1299
20.44,1201
20.5,1341
20.56,2038
20.62,3832
20.68,6399
20.74,10140
20.8,8418
20.86,2845
20.92,1082
20.98,735
21.04,703
21.1,741
21.16,919
21.22,1274
21.28,1258
21.34,774
21.4,682
21.46,787
21.52,965
21.58,1210
21.64,1362
21.7,988
21.76,623
21.82,583
21.88,628
21.94,577
22,576
22.06,596
22.12,750
22.18,1183
22.24,1610
22.3,1268
22.36,661
22.42,567
22.48,583
22.54,694
22.6,859
22.66,1244
22.72,2227
22.78,3285
22.84,2687
22.9,1806
22.96,1233
23.02,1061
23.08,1162
23.14,1816
23.2,2627
23.26,2260
23.32,1172
23.38,723
23.44,509
23.5,468
23.56,455
23.62,474
23.68,483
23.74,474
23.8,476
23.86,440
23.92,474
23.98,497
24.04,476
24.1,471
24.16,502
24.22,506
24.28,515
24.34,540
24.4,497
24.46,563
24.52,610
24.58,810
24.64,1596
24.7,2562
24.76,2795
24.82,1644
24.88,843
24.94,591
25,576
25.06,518
25.12,497
25.18,462
25.24,456
25.3,510
25.36,486
25.42,432
25.48,498
25.54,464
25.6,464
25.66,424
25.72,414
25.78,494
25.84,649
25.9,958
25.96,1431
26.02,1562
26.08,943
26.14,548
26.2,469
26.26,487
26.32,504
26.38,678
26.44,1025
26.5,1220
26.56,1316
26.62,1046
26.68,685
26.74,524
26.8,452
26.86,436
26.92,439
26.98,451
27.04,415
27.1,425
27.16,398
27.22,407
27.28,395
27.34,389
27.4,398
27.46,395
27.52,411
27.58,461
27.64,475
27.7,407
27.76,473
27.82,456
27.88,421
27.94,442
28,422
28.06,450
28.12,604
28.18,708
28.24,599
28.3,521
28.36,485
28.42,539
28.48,620
28.54,934
28.6,1318
28.66,2060
28.72,4055
28.78,4855
28.84,3279
28.9,2171
28.96,3152
29.02,7202
29.08,11468
29.14,7534
29.2,2731
29.26,1250
29.32,1137
29.38,1539
29.44,2293
29.5,4173
29.56,4215
29.62,2654
29.68,1442
29.74,1154
29.8,1345
29.86,1826
29.92,3631
29.98,5900
30.04,10751
30.1,10021
30.16,6531
30.22,4741
30.28,6378
30.34,13813
30.4,30653
30.46,33232
30.52,32040
30.58,27526
30.64,17221
30.7,6826
30.76,2510
30.82,1353
30.88,984
30.94,885
31,815
31.06,809
31.12,1098
31.18,1901
31.24,4001
31.3,6171
31.36,5110
31.42,4712
31.48,4484
31.54,2986
31.6,1639
31.66,916
31.72,709
31.78,537
31.84,531
31.9,515
31.96,549
32.02,677
32.08,1080
32.14,2054
32.2,4391
32.26,4309
32.32,2694
32.38,1196
32.44,641
32.5,583
32.56,516
32.62,488
32.68,473
32.74,460
32.8,409
32.86,401
32.92,407
32.98,440
33.04,442
33.1,545
33.16,572
33.22,582
33.28,608
33.34,731
33.4,1084
33.46,1646
33.52,3264
33.58,3617
33.64,2663
33.7,1570
33.76,1401
33.82,2004
33.88,4044
33.94,6302
34,6058
34.06,4627
34.12,2746
34.18,1905
34.24,1673
34.3,1471
34.36,1009
34.42,855
34.48,740
34.54,967
34.6,1800
34.66,2942
34.72,3505
34.78,4441
34.84,5622
34.9,4053
34.96,2631
35.02,1562
35.08,1612
35.14,1623
35.2,1727
35.26,1870
35.32,1596
35.38,1214
35.44,780
35.5,680
35.56,823
35.62,1134
35.68,1534
35.74,1661
35.8,1622
35.86,1316
35.92,1779
35.98,3774
36.04,5098
36.1,4821
36.16,3235
36.22,2048
36.28,1453
36.34,1377
36.4,1446
36.46,1392
36.52,947
36.58,618
36.64,440
36.7,377
36.76,427
36.82,398
36.88,350
36.94,366
37,368
37.06,404
37.12,471
37.18,628
37.24,993
37.3,1931
37.36,3156
37.42,3040
37.48,2786
37.54,1544
37.6,988
37.66,596
37.72,517
37.78,472
37.84,464
37.9,417
37.96,385
38.02,427
38.08,483
38.14,755
38.2,1375
38.26,1776
38.32,1823
38.38,2381
38.44,2757
38.5,2240
38.56,1499
38.62,831
38.68,577
38.74,495
38.8,431
38.86,431
38.92,405
38.98,444
39.04,483
39.1,530
39.16,508
39.22,420
39.28,364
39.34,335
39.4,304
39.46,298
39.52,307
39.58,306
39.64,310
39.7,323
39.76,325
39.82,339
39.88,325
39.94,320
40,305
40.06,348
40.12,415
40.18,667
40.24,1001
40.3,1275
40.36,1038
40.42,1000
40.48,964
40.54,792
40.6,630
40.66,496
40.72,428
40.78,471
40.84,644
40.9,888
40.96,933
41.02,746
41.08,635
41.14,706
41.2,1010
41.26,1042
41.32,932
41.38,813
41.44,583
41.5,466
41.56,490
41.62,572
41.68,574
41.74,586
41.8,674
41.86,666
41.92,731
41.98,676
42.04,693
42.1,929
42.16,1219
42.22,1954
42.28,2409
42.34,1889
42.4,1593
42.46,1274
42.52,950
42.58,900
42.64,939
42.7,1458
42.76,2713
42.82,3773
42.88,3314
42.94,2508
43,1460
43.06,898
43.12,812
43.18,1227
43.24,1258
43.3,1185
43.36,987
43.42,1072
43.48,996
43.54,977
43.6,1037
43.66,1091
43.72,933
43.78,1081
43.84,1221
43.9,1283
43.96,2149
44.02,3729
44.08,3017
44.14,2543
44.2,1609
44.26,1568
44.32,1944
44.38,1443
44.44,1189
44.5,700
44.56,534
44.62,538
44.68,528
44.74,608
44.8,787
44.86,864
44.92,777
44.98,645
45.04,443
45.1,389
45.16,374
45.22,427
45.28,615
45.34,874
45.4,1065
45.46,906
45.52,911
45.58,1049
45.64,1710
45.7,2351
45.76,1836
45.82,2044
45.88,2616
45.94,2595
46,1845
46.06,1447
46.12,733
46.18,520
46.24,481
46.3,572
46.36,607
46.42,844
46.48,1070
46.54,1401
46.6,1628
46.66,1259
46.72,1101
46.78,1010
46.84,1091
46.9,1582
46.96,2519
47.02,2708
47.08,1907
47.14,1484
47.2,874
47.26,667
47.32,814
47.38,1213
47.44,1472
47.5,1250
47.56,1108
47.62,766
47.68,561
47.74,519
47.8,518
47.86,610
47.92,895
47.98,1339
48.04,2282
48.1,3025
48.16,2722
48.22,2275
48.28,1634
48.34,1161
48.4,774
48.46,696
48.52,803
48.58,1182
48.64,1477
48.7,1403
48.76,1077
48.82,836
48.88,492
48.94,374
49,360
49.06,418
49.12,579
49.18,787
49.24,965
49.3,1070
49.36,974
49.42,684
49.48,575
49.54,439
49.6,373
49.66,447
49.72,578
49.78,749
49.84,952
49.9,855
49.96,745
50.02,692
50.08,654
50.14,823
50.2,1226
50.26,2221
50.32,2634
50.38,2101
50.44,1929
50.5,1399
50.56,1159
50.62,1149
50.68,1387
50.74,1295
50.8,1073
50.86,1058
50.92,743
50.98,579
51.04,467
51.1,399
51.16,380
51.22,357
51.28,446
51.34,560
51.4,699
51.46,1031
51.52,1399
51.58,1839
51.64,1842
51.7,1507
51.76,1282
51.82,1002
51.88,986
51.94,889
52,820
52.06,871
52.12,691
52.18,630
52.24,626
52.3,640
52.36,701
52.42,808
52.48,802
52.54,848
52.6,924
52.66,1043
52.72,1104
52.78,943
52.84,847
52.9,823
52.96,872
53.02,1129
53.08,1332
53.14,1205
53.2,1171
53.26,1238
53.32,1494
53.38,1713
53.44,1305
53.5,1262
53.56,977
53.62,803
53.68,873
53.74,889
53.8,966
53.86,1033
53.92,1313
53.98,1585
54.04,1606
54.1,1418
54.16,1313
54.22,1104
54.28,1034
54.34,1181
54.4,1017
54.46,968
54.52,813
54.58,712
54.64,593
54.7,573
54.76,619
54.82,691
54.88,743
54.94,726
55,729
55.06,649
55.12,724
55.18,720
55.24,655
55.3,554
55.36,474
55.42,417
55.48,405
55.54,383
55.6,359
55.66,423
55.72,349
55.78,465
55.84,557
55.9,862
55.96,1097
56.02,1062
56.08,1099
56.14,903
56.2,693
56.26,515
56.32,436
56.38,434
56.44,497
56.5,466
56.56,488
56.62,487
56.68,578
56.74,810
56.8,938
56.86,979
56.92,923
56.98,799
57.04,658
57.1,493
57.16,454
57.22,443
57.28,442
57.34,564
57.4,769
57.46,1140
57.52,1885
57.58,2341
57.64,2145
57.7,1742
57.76,1524
57.82,1213
57.88,877
57.94,649
58,640
58.06,578
58.12,568
58.18,651
58.24,905
58.3,1349
58.36,1829
58.42,1937
58.48,2269
58.54,3020
58.6,3434
58.66,2543
58.72,2223
58.78,2170
58.84,1778
58.9,1293
58.96,1177
59.02,1103
59.08,919
59.14,869
59.2,1089
59.26,1353
59.32,1509
59.38,1317
59.44,1513
59.5,2214
59.56,3546
59.62,3983
59.68,2830
59.74,2681
59.8,1987
59.86,1118
59.92,732
59.98,692
60.04,735
60.1,758
60.16,689
60.22,740
60.28,861
60.34,839
60.4,797
60.46,755
60.52,714
60.58,730
60.64,814
60.7,727
60.76,764
60.82,902
60.88,1231
60.94,1676
61,2001
61.06,1717
61.12,1964
61.18,2155
61.24,2289
61.3,2156
61.36,1695
61.42,1514
61.48,1232
61.54,929
61.6,707
61.66,596
61.72,529
61.78,519
61.84,490
61.9,443
61.96,396
62.02,475
62.08,460
62.14,644
62.2,792
62.26,986
62.32,1201
62.38,1501
62.44,2179
62.5,2386
62.56,1937
62.62,1891
62.68,1628
62.74,1404
62.8,1294
62.86,1313
62.92,1341
62.98,1367
63.04,1301
63.1,1122
63.16,1156
63.22,1404
63.28,1704
63.34,1433
63.4,1301
63.46,1367
63.52,1333
63.58,1631
63.64,2504
63.7,2755
63.76,2777
63.82,2361
63.88,2017
63.94,1596
64,1100
64.06,714
64.12,619
64.18,567
64.24,558
64.3,545
64.36,560
64.42,617
64.48,688
64.54,755
64.6,798
64.66,919
64.72,1074
64.78,1488
64.84,2048
64.9,2304
64.96,2342
65.02,2639
65.08,2368
65.14,1901
65.2,1797
65.26,1646
65.32,1384
65.38,1055
65.44,989
65.5,952
65.56,1056
65.62,1322
65.68,1368
65.74,1307
65.8,1265
65.86,1209
65.92,971
65.98,1003
66.04,1196
66.1,1562
66.16,1431
66.22,1200
66.28,1133
66.34,1017
66.4,818
66.46,745
66.52,1013
66.58,1114
66.64,1043
66.7,949
66.76,893
66.82,759
66.88,628
66.94,584
67,608
67.06,617
67.12,667
67.18,645
67.24,546
67.3,520
67.36,526
67.42,450
67.48,518
67.54,578
67.6,816
67.66,860
67.72,688
67.78,606
67.84,603
67.9,535
67.96,467
68.02,481
68.08,578
68.14,671
68.2,763
68.26,736
68.32,806
68.38,907
68.44,968
68.5,975
68.56,959
68.62,946
68.68,1014
68.74,1146
68.8,1428
68.86,1505
68.92,1758
68.98,1743
69.04,1475
69.1,1152
69.16,1050
69.22,877
69.28,705
69.34,583
69.4,507
69.46,452
69.52,471
69.58,424
69.64,412
69.7,352
69.76,324
69.82,351
69.88,400
69.94,452
70,459
70.06,479
70.12,561
70.18,631
70.24,690
70.3,724
70.36,869
70.42,1033
70.48,861
70.54,722
70.6,684
70.66,600
70.72,475
70.78,485
70.84,471
70.9,529
70.96,644
71.02,620
71.08,561
71.14,535
71.2,591
71.26,609
71.32,576
71.38,525
71.44,587
71.5,577
71.56,645
71.62,899
71.68,1256
71.74,1714
71.8,2063
71.86,1704
71.92,1571
71.98,1549
72.04,1407
72.1,1202
72.16,933
72.22,889
72.28,760
72.34,695
72.4,617
72.46,708
72.52,764
72.58,881
72.64,1062
72.7,1180
72.76,1151
72.82,1151
72.88,1215
72.94,1210
73,1184
73.06,1306
73.12,1192
73.18,1003
73.24,953
73.3,834
73.36,689
73.42,552
73.48,550
73.54,416
73.6,407
73.66,435
73.72,507
73.78,484
73.84,577
73.9,660
73.96,679
74.02,730
74.08,771
74.14,779
74.2,687
74.26,673
74.32,639
74.38,623
74.44,590
74.5,563
74.56,533
74.62,547
74.68,457
74.74,362
74.8,434
74.86,415
74.92,408
74.98,400
75.04,455
75.1,505
75.16,503
75.22,460
75.28,478
75.34,466
75.4,402
75.46,406
75.52,428
75.58,441
75.64,440
75.7,422
75.76,473
75.82,528
75.88,586
75.94,583
76,530
76.06,605
76.12,643
76.18,636
76.24,601
76.3,586
76.36,477
76.42,455
76.48,437
76.54,340
76.6,330
76.66,346
76.72,318
76.78,329
76.84,347
76.9,381
76.96,395
77.02,457
77.08,628
77.14,750
77.2,809
77.26,704
77.32,693
77.38,734
77.44,620
77.5,569
77.56,519
77.62,556
77.68,522
77.74,594
77.8,772
77.86,677
77.92,589
77.98,510
78.04,493
78.1,444
78.16,352
78.22,323
78.28,299
78.34,279
78.4,269
78.46,260
78.52,253
78.58,273
78.64,297
78.7,298
78.76,317
78.82,321
78.88,352
78.94,402
79,413
79.06,460
79.12,406
79.18,387
79.24,417
79.3,369
79.36,337
79.42,396
79.48,447
79.54,448
79.6,553
79.66,634
79.72,714
79.78,599
79.84,514
79.9,545
79.96,520
80.02,490
80.08,440
80.14,443
80.2,449
80.26,429
80.32,461
80.38,442
80.44,443
80.5,424
80.56,414
80.62,387
80.68,330
80.74,286
80.8,304
80.86,295
80.92,308
80.98,335
81.04,412
81.1,509
81.16,633
81.22,552
81.28,622
81.34,600
81.4,522
81.46,555
81.52,535
81.58,468
81.64,449
81.7,438
81.76,372
81.82,400
81.88,373
81.94,409
82,383
82.06,346
82.12,391
82.18,390
82.24,413
82.3,455
82.36,382
82.42,374
82.48,430
82.54,380
82.6,358
82.66,389
82.72,341
82.78,320
82.84,341
82.9,367
82.96,297
83.02,279
83.08,237
83.14,294
83.2,271
83.26,254
83.32,296
83.38,306
83.44,343
83.5,314
83.56,326
83.62,338
83.68,402
83.74,459
83.8,514
83.86,526
83.92,482
83.98,502
84.04,502
84.1,418
84.16,468
84.22,448
84.28,399
84.34,416
84.4,395
84.46,397
84.52,372
84.58,353
84.64,356
84.7,364
84.76,341
84.82,365
84.88,359
84.94,364
85,360
85.06,388
85.12,418
85.18,463
85.24,484
85.3,515
85.36,511
85.42,507
85.48,469
85.54,458
85.6,453
85.66,448
85.72,414
85.78,413
85.84,384
85.9,456
85.96,493
86.02,610
86.08,707
86.14,840
86.2,795
86.26,742
86.32,700
86.38,671
86.44,593
86.5,548
86.56,485
86.62,431
86.68,382
86.74,457
86.8,456
86.86,506
86.92,504
86.98,592
87.04,663
87.1,689
87.16,719
87.22,671
87.28,724
87.34,711
87.4,592
87.46,556
87.52,580
87.58,555
87.64,542
87.7,473
87.76,429
87.82,377
87.88,360
87.94,359
88,365
88.06,385
88.12,389
88.18,363
88.24,350
88.3,330
88.36,396
88.42,384
88.48,376
88.54,421
88.6,490
88.66,521
88.72,553
88.78,466
88.84,482
88.9,476
88.96,527
89.02,595
89.08,623
89.14,645
89.2,755
89.26,730
89.32,683
89.38,656
89.44,666
89.5,631
89.56,658
89.62,650
89.68,543
89.74,471
89.8,438
89.86,445
89.92,392
89.98,395
90,415