File: data/xrd_icdd_PDF/00-056-1315 (PD3).csv
6,6385
6.08,6280
6.16,6292
6.24,6321
6.32,6232
6.4,6134
6.48,6170
6.56,6205
6.64,6088
6.72,6161
6.8,6236
6.88,6247
6.96,6019
7.04,6044
7.12,6148
7.2,6100
7.28,6064
7.36,6141
7.44,6027
7.52,6001
7.6,5975
7.68,6039
7.76,6045
7.84,6131
7.92,6062
8,6022
8.08,6102
8.16,6024
8.24,6005
8.32,6034
8.4,6049
8.48,5963
8.56,5967
8.64,5911
8.72,5877
8.8,5967
8.88,6014
8.96,5940
9.04,6019
9.12,5929
9.2,5839
9.28,5856
9.36,5897
9.44,5828
9.52,5921
9.6,5954
9.68,5802
9.76,5790
9.84,5767
9.92,5862
10,5873
10.08,5871
10.16,5796
10.24,5823
10.32,5808
10.4,5823
10.48,5751
10.56,5837
10.64,5825
10.72,5894
10.8,5874
10.88,5782
10.96,5733
11.04,5808
11.12,5824
11.2,5905
11.28,5759
11.36,5829
11.44,5955
11.52,5721
11.6,5770
11.68,5783
11.76,5718
11.84,5731
11.92,5685
12,5705
12.08,5669
12.16,5640
12.24,5641
12.32,5651
12.4,5790
12.48,5625
12.56,5699
12.64,5779
12.72,5771
12.8,5710
12.88,5757
12.96,5655
13.04,5639
13.12,5654
13.2,5784
13.28,5598
13.36,5652
13.44,5692
13.52,5701
13.6,5638
13.68,5770
13.76,5721
13.84,5623
13.92,5680
14,5566
14.08,5695
14.16,5666
14.24,5698
14.32,5692
14.4,5748
14.48,5633
14.56,5692
14.64,5677
14.72,5683
14.8,5717
14.88,5621
14.96,5603
15.04,5631
15.12,5713
15.2,5676
15.28,5621
15.36,5659
15.44,5607
15.52,5584
15.6,5662
15.68,5527
15.76,5586
15.84,5559
15.92,5528
16,5637
16.08,5615
16.16,5635
16.24,5637
16.32,5782
16.4,5608
16.48,5613
16.56,5584
16.64,5566
16.72,5615
16.8,5614
16.88,5636
16.96,5575
17.04,5596
17.12,5531
17.2,5610
17.28,5664
17.36,5700
17.44,5679
17.52,5657
17.6,5527
17.68,5685
17.76,5592
17.84,5620
17.92,5546
18,5597
18.08,5603
18.16,5614
18.24,5633
18.32,5540
18.4,5633
18.48,5545
18.56,5523
18.64,5599
18.72,5623
18.8,5532
18.88,5662
18.96,5652
19.04,5951
19.12,6176
19.2,6740
19.28,6711
19.36,6182
19.44,5932
19.52,5800
19.6,5645
19.68,5655
19.76,5732
19.84,5633
19.92,5653
20,5711
20.08,5634
20.16,5730
20.24,5592
20.32,5734
20.4,5759
20.48,5744
20.56,5895
20.64,6182
20.72,6574
20.8,6848
20.88,6291
20.96,5935
21.04,5721
21.12,5710
21.2,5606
21.28,5609
21.36,5583
21.44,5504
21.52,5658
21.6,5541
21.68,5578
21.76,5607
21.84,5648
21.92,5474
22,5499
22.08,5523
22.16,5717
22.24,5577
22.32,5543
22.4,5612
22.48,5532
22.56,5537
22.64,5551
22.72,5570
22.8,5508
22.88,5561
22.96,5502
23.04,5610
23.12,5628
23.2,5570
23.28,5725
23.36,5558
23.44,5587
23.52,5610
23.6,5589
23.68,5559
23.76,5580
23.84,5613
23.92,5590
24,5576
24.08,5725
24.16,5655
24.24,5571
24.32,5545
24.4,5702
24.48,5549
24.56,5479
24.64,5499
24.72,5536
24.8,5443
24.88,5544
24.96,5481
25.04,5459
25.12,5463
25.2,5481
25.28,5624
25.36,5595
25.44,5529
25.52,5626
25.6,5673
25.68,5588
25.76,5682
25.84,5809
25.92,5800
26,5765
26.08,5955
26.16,6159
26.24,6550
26.32,7554
26.4,10416
26.48,14422
26.56,13005
26.64,8996
26.72,7093
26.8,6495
26.88,6001
26.96,6036
27.04,5854
27.12,5732
27.2,5819
27.28,5770
27.36,5669
27.44,5723
27.52,5683
27.6,5605
27.68,5525
27.76,5514
27.84,5506
27.92,5465
28,5753
28.08,5640
28.16,5642
28.24,5663
28.32,5441
28.4,5530
28.48,5722
28.56,5516
28.64,5519
28.72,5579
28.8,5479
28.88,5527
28.96,5569
29.04,5501
29.12,5524
29.2,5519
29.28,5622
29.36,5675
29.44,5489
29.52,5567
29.6,5529
29.68,5558
29.76,5397
29.84,5578
29.92,5650
30,5469
30.08,5570
30.16,5462
30.24,5551
30.32,5438
30.4,5448
30.48,5481
30.56,5627
30.64,5536
30.72,5540
30.8,5503
30.88,5614
30.96,5466
31.04,5621
31.12,5559
31.2,5594
31.28,5639
31.36,5667
31.44,5567
31.52,5546
31.6,5516
31.68,5540
31.76,5513
31.84,5734
31.92,5593
32,5498
32.08,5548
32.16,5674
32.24,5743
32.32,5821
32.4,5939
32.48,6334
32.56,6965
32.64,8030
32.72,7908
32.8,6953
32.88,6405
32.96,6180
33.04,6081
33.12,6107
33.2,6070
33.28,6150
33.36,6242
33.44,6397
33.52,6623
33.6,7271
33.68,8289
33.76,11132
33.84,16537
33.92,18866
34,14677
34.08,10028
34.16,8062
34.24,7099
34.32,6562
34.4,6323
34.48,6074
34.56,6075
34.64,5977
34.72,5998
34.8,5957
34.88,5910
34.96,6049
35.04,6190
35.12,6114
35.2,6403
35.28,6868
35.36,8096
35.44,10347
35.52,10278
35.6,8452
35.68,6986
35.76,6349
35.84,6101
35.92,5878
36,5818
36.08,5751
36.16,5694
36.24,5650
36.32,5635
36.4,5559
36.48,5640
36.56,5530
36.64,5415
36.72,5553
36.8,5534
36.88,5469
36.96,5488
37.04,5572
37.12,5666
37.2,5536
37.28,5631
37.36,5586
37.44,5855
37.52,5863
37.6,6115
37.68,6341
37.76,6853
37.84,8172
37.92,10906
38,11364
38.08,9584
38.16,7605
38.24,6784
38.32,6484
38.4,6461
38.48,6337
38.56,6327
38.64,6597
38.72,7065
38.8,7791
38.88,9322
38.96,12022
39.04,12855
39.12,10977
39.2,8611
39.28,7373
39.36,6708
39.44,6340
39.52,6145
39.6,6035
39.68,5955
39.76,5842
39.84,5878
39.92,5892
40,5907
40.08,6098
40.16,6039
40.24,6314
40.32,6934
40.4,8261
40.48,10572
40.56,10689
40.64,8995
40.72,7295
40.8,6445
40.88,6187
40.96,5982
41.04,5937
41.12,5807
41.2,5796
41.28,5774
41.36,5770
41.44,5702
41.52,5878
41.6,5662
41.68,5819
41.76,5826
41.84,5963
41.92,5985
42,6263
42.08,6632
42.16,7252
42.24,8148
42.32,8639
42.4,9262
42.48,8770
42.56,7664
42.64,6705
42.72,6312
42.8,5968
42.88,5853
42.96,5787
43.04,5801
43.12,5764
43.2,5714
43.28,5637
43.36,5688
43.44,5460
43.52,5647
43.6,5505
43.68,5507
43.76,5506
43.84,5544
43.92,5584
44,5492
44.08,5616
44.16,5460
44.24,5426
44.32,5566
44.4,5474
44.48,5513
44.56,5571
44.64,5395
44.72,5494
44.8,5520
44.88,5532
44.96,5489
45.04,5514
45.12,5498
45.2,5551
45.28,5572
45.36,5541
45.44,5450
45.52,5502
45.6,5476
45.68,5447
45.76,5561
45.84,5490
45.92,5560
46,5506
46.08,5519
46.16,5409
46.24,5537
46.32,5558
46.4,5515
46.48,5466
46.56,5452
46.64,5475
46.72,5504
46.8,5578
46.88,5637
46.96,5764
47.04,5713
47.12,5567
47.2,5571
47.28,5529
47.36,5463
47.44,5581
47.52,5645
47.6,5727
47.68,5906
47.76,5794
47.84,5658
47.92,5599
48,5478
48.08,5510
48.16,5627
48.24,5532
48.32,5558
48.4,5551
48.48,5501
48.56,5520
48.64,5492
48.72,5516
48.8,5514
48.88,5592
48.96,5508
49.04,5564
49.12,5523
49.2,5547
49.28,5539
49.36,5467
49.44,5623
49.52,5602
49.6,5506
49.68,5574
49.76,5661
49.84,5472
49.92,5508
50,5563
50.08,5615
50.16,5626
50.24,5645
50.32,5609
50.4,5805
50.48,6034
50.56,6140
50.64,6141
50.72,6112
50.8,6134
50.88,6182
50.96,6276
51.04,6045
51.12,5861
51.2,5848
51.28,5607
51.36,5701
51.44,5571
51.52,5527
51.6,5562
51.68,5556
51.76,5471
51.84,5415
51.92,5495
52,5599
52.08,5539
52.16,5507
52.24,5538
52.32,5453
52.4,5526
52.48,5541
52.56,5490
52.64,5448
52.72,5476
52.8,5516
52.88,5520
52.96,5572
53.04,5515
53.12,5573
53.2,5447
53.28,5523
53.36,5573
53.44,5503
53.52,5595
53.6,5538
53.68,5603
53.76,5573
53.84,5611
53.92,5612
54,5714
54.08,5824
54.16,5770
54.24,5923
54.32,6233
54.4,6592
54.48,7320
54.56,7998
54.64,8177
54.72,7631
54.8,7205
54.88,6338
54.96,6075
55.04,5939
55.12,5905
55.2,5852
55.28,5761
55.36,5855
55.44,5814
55.52,5836
55.6,5913
55.68,5808
55.76,5947
55.84,5964
55.92,5885
56,6119
56.08,6331
56.16,6992
56.24,7657
56.32,8237
56.4,8784
56.48,8487
56.56,7776
56.64,7154
56.72,6455
56.8,6261
56.88,5999
56.96,5905
57.04,5913
57.12,5679
57.2,5679
57.28,5820
57.36,5715
57.44,5659
57.52,5773
57.6,5801
57.68,5754
57.76,5904
57.84,5959
57.92,6258
58,6528
58.08,6629
58.16,6605
58.24,6478
58.32,6181
58.4,6128
58.48,6187
58.56,6230
58.64,6440
58.72,6711
58.8,7079
58.88,8273
58.96,9964
59.04,10101
59.12,9496
59.2,8553
59.28,7521
59.36,6879
59.44,6455
59.52,6286
59.6,6152
59.68,6044
59.76,6082
59.84,6291
59.92,6401
60,6756
60.08,7173
60.16,7044
60.24,6743
60.32,6483
60.4,6112
60.48,6012
60.56,5902
60.64,5829
60.72,5860
60.8,5727
60.88,5637
60.96,5795
61.04,5835
61.12,5762
61.2,5924
61.28,6055
61.36,6144
61.44,6132
61.52,6118
61.6,6011
61.68,5863
61.76,5676
61.84,5561
61.92,5541
62,5604
62.08,5583
62.16,5529
62.24,5465
62.32,5488
62.4,5542
62.48,5535
62.56,5558
62.64,5512
62.72,5518
62.8,5583
62.88,5564
62.96,5548
63.04,5427
63.12,5458
63.2,5559
63.28,5562
63.36,5434
63.44,5466
63.52,5542
63.6,5553
63.68,5478
63.76,5547
63.84,5504
63.92,5525
64,5516
64.08,5623
64.16,5553
64.24,5625
64.32,5518
64.4,5434
64.48,5539
64.56,5536
64.64,5562
64.72,5435
64.8,5573
64.88,5494
64.96,5500
65.04,5553
65.12,5601
65.2,5498
65.28,5686
65.36,5704
65.44,5942
65.52,5852
65.6,5758
65.68,5567
65.76,5584
65.84,5569
65.92,5604
66,5526
66.08,5462
66.16,5463
66.24,5487
66.32,5581
66.4,5541
66.48,5665
66.56,5582
66.64,5500
66.72,5545
66.8,5512
66.88,5453
66.96,5507
67.04,5510
67.12,5626
67.2,5647
67.28,5667
67.36,5699
67.44,5755
67.52,5718
67.6,5871
67.68,5836
67.76,6018
67.84,6262
67.92,6484
68,7088
68.08,8034
68.16,9276
68.24,9753
68.32,9590
68.4,9155
68.48,8438
68.56,7482
68.64,6991
68.72,6491
68.8,6215
68.88,6137
68.96,5977
69.04,5939
69.12,5920
69.2,5811
69.28,5745
69.36,5717
69.44,5718
69.52,5710
69.6,5616
69.68,5555
69.76,5583
69.84,5607
69.92,5655
70,5501
70.08,5566
70.16,5475
70.24,5568
70.32,5500
70.4,5536
70.48,5492
70.56,5651
70.64,5561
70.72,5546
70.8,5535
70.88,5577
70.96,5516
71.04,5581
71.12,5706
71.2,5762
71.28,5831
71.36,5966
71.44,5921
71.52,5779
71.6,5780
71.68,5863
71.76,5882
71.84,5828
71.92,6063
72,6234
72.08,6504
72.16,6603
72.24,6485
72.32,6415
72.4,6329
72.48,6111
72.56,6077
72.64,6034
72.72,6068
72.8,6279
72.88,6605
72.96,6835
73.04,6547
73.12,6405
73.2,6307
73.28,6018
73.36,5892
73.44,5859
73.52,5693
73.6,5673
73.68,5674
73.76,5770
73.84,5619
73.92,5655
74,5690
74.08,5700
74.16,5643
74.24,5568
74.32,5730
74.4,5627
74.48,5899
74.56,6028
74.64,6224
74.72,6048
74.8,6074
74.88,5935
74.96,5981
75.04,5807
75.12,5703
75.2,5596
75.28,5715
75.36,5690
75.44,5720
75.52,5684
75.6,5781
75.68,5648
75.76,5838
75.84,5694
75.92,5956
76,6035
76.08,6358
76.16,6839
76.24,6977
76.32,7084
76.4,6966
76.48,6707
76.56,6423
76.64,6151
76.72,5964
76.8,5725
76.88,5709
76.96,5537
77.04,5547
77.12,5661
77.2,5435
77.28,5587
77.36,5462
77.44,5450
77.52,5499
77.6,5534
77.68,5525
77.76,5522
77.84,5401
77.92,5529
78,5531
78.08,5453
78.16,5547
78.24,5618
78.32,5469
78.4,5474
78.48,5486
78.56,5486
78.64,5538
78.72,5535
78.8,5546
78.88,5579
78.96,5615
79.04,5721
79.12,5474
79.2,5533
79.28,5586
79.36,5562
79.44,5558
79.52,5538
79.6,5555
79.68,5531
79.76,5494
79.84,5579
79.92,5556
80,5614
80.08,5696
80.16,5586
80.24,5689
80.32,5912
80.4,6087
80.48,5974
80.56,6096
80.64,6141
80.72,6063
80.8,6361
80.88,6548
80.96,6555
81.04,6565
81.12,6486
81.2,6361
81.28,6329
81.36,5972
81.44,5907
81.52,5860
81.6,5738
81.68,5871
81.76,5859
81.84,6010
81.92,6253
82,6113
82.08,6171
82.16,6142
82.24,5961
82.32,5845
82.4,5763
82.48,5639
82.56,5699
82.64,5698
82.72,5581
82.8,5711
82.88,5673
82.96,5649
83.04,5633
83.12,5672
83.2,5808
83.28,5685
83.36,5691
83.44,5758
83.52,5870
83.6,6065
83.68,6283
83.76,6438
83.84,6722
83.92,6635
84,6409
84.08,6273
84.16,6283
84.24,6096
84.32,5789
84.4,5848
84.48,5599
84.56,5663
84.64,5711
84.72,5517
84.8,5623
84.88,5603
84.96,5520
85.04,5585
85.12,5619
85.2,5500
85.28,5565
85.36,5563
85.44,5690
85.52,5660
85.6,5435
85.68,5490
85.76,5607
85.84,5471
85.92,5477
86,5589
86.08,5524
86.16,5483
86.24,5450
86.32,5627
86.4,5536
86.48,5544
86.56,5670
86.64,5769
86.72,5727
86.8,5682
86.88,5800
86.96,5695
87.04,5713
87.12,5652
87.2,5566
87.28,5527
87.36,5612
87.44,5566
87.52,5607
87.6,5642
87.68,5596
87.76,5641
87.84,5536
87.92,5590
88,5546
88.08,5545
88.16,5448
88.24,5452
88.32,5555
88.4,5471
88.48,5508
88.56,5540
88.64,5464
88.72,5522
88.8,5526
88.88,5446
88.96,5581
89.04,5555
89.12,5518
89.2,5519
89.28,5581
89.36,5624
89.44,5604
89.52,5639
89.6,5655
89.68,5630
89.76,5535
89.84,5583
89.92,5546
90,5537
90.08,5596
90.16,5740
90.24,5649
90.32,5708
90.4,5771
90.48,5967
90.56,5975
90.64,5818
90.72,5815
90.8,5751
90.88,5804
90.96,5840
91.04,5876
91.12,5975
91.2,6043
91.28,5962
91.36,5935
91.44,5762
91.52,5813
91.6,5677
91.68,5703
91.76,5694
91.84,5644
91.92,5670
92,5595
92.08,5588
92.16,5592
92.24,5721
92.32,5699
92.4,5675
92.48,5604
92.56,5711
92.64,5704
92.72,5688
92.8,5799
92.88,5730
92.96,5770
93.04,5795
93.12,5762
93.2,5698
93.28,5702
93.36,5659
93.44,5645
93.52,5621
93.6,5481
93.68,5523
93.76,5500
93.84,5532
93.92,5628
94,5520
94.08,5541
94.16,5477
94.24,5591
94.32,5552
94.4,5620
94.48,5597
94.56,5544
94.64,5449
94.72,5455
94.8,5514
94.88,5488
94.96,5668
95.04,5592
95.12,5725
95.2,5797
95.28,5896
95.36,5987
95.44,6133
95.52,6380
95.6,6208
95.68,6173
95.76,6298
95.84,6327
95.92,6142
96,6107
96.08,6077
96.16,6081
96.24,6038
96.32,5977
96.4,5971
96.48,5891
96.56,5925
96.64,6089
96.72,6186
96.8,6243
96.88,6252
96.96,6120
97.04,6033
97.12,6036
97.2,5926
97.28,5865
97.36,5740
97.44,5746
97.52,5788
97.6,5833
97.68,5914
97.76,5918
97.84,5948
97.92,5968
98,6002
98.08,6059
98.16,6149
98.24,6287
98.32,6236
98.4,6335
98.48,6569
98.56,6819
98.64,7141
98.72,7216
98.8,6953
98.88,6945
98.96,6689
99.04,6676
99.12,6439
99.2,6285
99.28,6177
99.36,5873
99.44,5750
99.52,5835
99.6,5717
99.68,5655
99.76,5704
99.84,5707
99.9,5563