File: data/xrd_icdd_PDF/00-071-0570 (PD3).csv
3,289
3.15,293
3.3,298
3.45,298
3.6,266
3.75,199
3.9,235
4.05,266
4.2,213
4.35,239
4.5,235
4.65,235
4.8,253
4.95,235
5.1,271
5.25,230
5.4,181
5.55,253
5.7,177
5.85,181
6,199
6.15,213
6.3,181
6.45,150
6.6,172
6.75,195
6.9,221
7.05,190
7.2,172
7.35,141
7.5,199
7.65,221
7.8,262
7.95,159
8.1,175
8.25,182
8.4,197
8.55,194
8.7,232
8.85,202
9,165
9.15,154
9.3,190
9.45,161
9.6,174
9.75,148
9.9,188
10.05,173
10.2,190
10.35,199
10.5,150
10.65,180
10.8,180
10.95,193
11.1,167
11.25,153
11.4,186
11.55,160
11.7,139
11.85,212
12,160
12.15,192
12.3,166
12.45,171
12.6,159
12.75,180
12.9,176
13.05,144
13.2,172
13.35,162
13.5,146
13.65,178
13.8,166
13.95,182
14.1,183
14.25,176
14.4,153
14.55,166
14.7,180
14.85,174
15,192
15.15,179
15.3,175
15.45,160
15.6,160
15.75,162
15.9,165
16.05,171
16.2,145
16.35,168
16.5,142
16.65,170
16.8,154
16.95,189
17.1,161
17.25,167
17.4,225
17.55,196
17.7,293
17.85,255
18,177
18.15,173
18.3,191
18.45,188
18.6,162
18.75,188
18.9,154
19.05,154
19.2,158
19.35,163
19.5,143
19.65,162
19.8,137
19.95,160
20.1,163
20.25,189
20.4,170
20.55,174
20.7,154
20.85,167
21,143
21.15,156
21.3,155
21.45,145
21.6,253
21.75,345
21.9,384
22.05,206
22.2,195
22.35,193
22.5,184
22.65,181
22.8,184
22.95,172
23.1,154
23.25,218
23.4,197
23.55,155
23.7,161
23.85,156
24,208
24.15,264
24.3,193
24.45,152
24.6,153
24.75,167
24.9,144
25.05,152
25.2,158
25.35,137
25.5,154
25.65,166
25.8,137
25.95,163
26.1,157
26.25,166
26.4,138
26.55,171
26.7,126
26.85,167
27,161
27.15,162
27.3,209
27.45,227
27.6,194
27.75,217
27.9,519
28.05,1709
28.2,3991
28.35,3153
28.5,600
28.65,180
28.8,164
28.95,173
29.1,168
29.25,168
29.4,170
29.55,184
29.7,191
29.85,481
30,1751
30.15,3797
30.3,2824
30.45,2455
30.6,988
30.75,202
30.9,154
31.05,181
31.2,201
31.35,312
31.5,260
31.65,161
31.8,161
31.95,160
32.1,163
32.25,165
32.4,144
32.55,148
32.7,158
32.85,134
33,141
33.15,140
33.3,140
33.45,150
33.6,167
33.75,154
33.9,182
34.05,259
34.2,227
34.35,149
34.5,151
34.65,156
34.8,149
34.95,170
35.1,187
35.25,296
35.4,324
35.55,200
35.7,196
35.85,283
36,340
36.15,210
36.3,150
36.45,137
36.6,151
36.75,144
36.9,139
37.05,141
37.2,148
37.35,131
37.5,146
37.65,125
37.8,149
37.95,134
38.1,130
38.25,139
38.4,165
38.55,149
38.7,155
38.85,182
39,393
39.15,738
39.3,647
39.45,260
39.6,258
39.75,360
39.9,439
40.05,233
40.2,145
40.35,179
40.5,163
40.65,189
40.8,228
40.95,235
41.1,423
41.25,1198
41.4,1587
41.55,951
41.7,1138
41.85,510
42,185
42.15,143
42.3,164
42.45,174
42.6,152
42.75,153
42.9,176
43.05,285
43.2,419
43.35,257
43.5,187
43.65,198
43.8,355
43.95,1373
44.1,2818
44.25,1103
44.4,380
44.55,308
44.7,219
44.85,168
45,150
45.15,157
45.3,164
45.45,159
45.6,195
45.75,416
45.9,939
46.05,549
46.2,180
46.35,142
46.5,147
46.65,172
46.8,149
46.95,162
47.1,159
47.25,218
47.4,722
47.55,1462
47.7,706
47.85,193
48,144
48.15,136
48.3,148
48.45,145
48.6,144
48.75,130
48.9,135
49.05,145
49.2,145
49.35,255
49.5,550
49.65,492
49.8,249
49.95,267
50.1,209
50.25,152
50.4,140
50.55,153
50.7,133
50.85,142
51,133
51.15,138
51.3,201
51.45,195
51.6,152
51.75,157
51.9,188
52.05,428
52.2,1047
52.35,734
52.5,460
52.65,631
52.8,330
52.95,286
53.1,403
53.25,284
53.4,203
53.55,284
53.7,336
53.85,240
54,783
54.15,1922
54.3,1237
54.45,460
54.6,335
54.75,159
54.9,132
55.05,164
55.2,230
55.35,245
55.5,179
55.65,128
55.8,150
55.95,153
56.1,208
56.25,290
56.4,272
56.55,347
56.7,320
56.85,303
57,363
57.15,282
57.3,168
57.45,123
57.6,151
57.75,173
57.9,295
58.05,412
58.2,453
58.35,776
58.5,1704
58.65,2083
58.8,999
58.95,254
59.1,179
59.25,175
59.4,177
59.55,300
59.7,340
59.85,744
60,2443
60.15,2146
60.3,451
60.45,220
60.6,229
60.75,391
60.9,522
61.05,267
61.2,243
61.35,444
61.5,396
61.65,220
61.8,157
61.95,189
62.1,243
62.25,259
62.4,254
62.55,600
62.7,1158
62.85,558
63,370
63.15,615
63.3,509
63.45,261
63.6,144
63.75,191
63.9,228
64.05,471
64.2,459
64.35,326
64.5,462
64.65,344
64.8,187
64.95,186
65.1,170
65.25,182
65.4,257
65.55,450
65.7,300
65.85,190
66,213
66.15,187
66.3,157
66.45,158
66.6,139
66.75,151
66.9,155
67.05,154
67.2,161
67.35,148
67.5,160
67.65,157
67.8,228
67.95,492
68.1,744
68.25,358
68.4,199
68.55,192
68.7,212
68.85,230
69,339
69.15,570
69.3,1401
69.45,1356
69.6,403
69.75,190
69.9,186
70.05,190
70.2,254
70.35,344
70.5,338
70.65,226
70.8,244
70.95,713
71.1,1901
71.25,1833
71.4,856
71.55,448
71.7,252
71.85,234
72,286
72.15,294
72.3,421
72.45,535
72.6,630
72.75,779
72.9,459
73.05,445
73.2,522
73.35,301
73.5,263
73.65,626
73.8,895
73.95,484
74.1,253
74.25,191
74.4,165
74.55,177
74.7,222
74.85,278
75,177
75.15,171
75.3,169
75.45,323
75.6,716
75.75,966
75.9,619
76.05,419
76.2,637
76.35,1386
76.5,2156
76.65,1293
76.8,387
76.95,199
77.1,191
77.25,156
77.4,183
77.55,251
77.7,312
77.85,252
78,192
78.15,138
78.3,164
78.45,163
78.6,197
78.75,284
78.9,364
79.05,297
79.2,205
79.35,185
79.5,196
79.65,183
79.8,175
79.95,177
80.1,161
80.25,226
80.4,419
80.55,596
80.7,635
80.85,499
81,411
81.15,637
81.3,642
81.45,420
81.6,561
81.75,498
81.9,336
82.05,336
82.2,436
82.35,452
82.5,302
82.65,203
82.8,181
82.95,188
83.1,231
83.25,259
83.4,290
83.55,346
83.7,278
83.85,204
84,178
84.15,266
84.3,426
84.45,481
84.6,346
84.75,274
84.9,276
85.05,245
85.2,260
85.35,218
85.5,286
85.65,670
85.8,897
85.95,716
86.1,406
86.25,237
86.4,206
86.55,239
86.7,372
86.85,595
87,683
87.15,632
87.3,402
87.45,202
87.6,178
87.75,172
87.9,207
88.05,349
88.2,509
88.35,590
88.5,574
88.65,631
88.8,608
88.95,458
89.1,272
89.25,195
89.4,209
89.55,193
89.7,197
89.85,194
90,300
90.15,351
90.3,345
90.45,327
90.6,484
90.75,681
90.9,797
91.05,694
91.2,478
91.35,247
91.5,184
91.65,171
91.8,168
91.95,173
92.1,150
92.25,184
92.4,194
92.55,230
92.7,230
92.85,246
93,321
93.15,372
93.3,354
93.45,286
93.6,220
93.75,195
93.9,259
94.05,293
94.2,317
94.35,280
94.5,247
94.65,268
94.8,279
94.95,368
95.1,513
95.25,674
95.4,689
95.55,532
95.7,461
95.85,301
96,237
96.15,230
96.3,231
96.45,221
96.6,235
96.75,246
96.9,297
97.05,576
97.2,983
97.35,1292
97.5,1127
97.65,857
97.8,777
97.95,623
98.1,369
98.25,342
98.4,348
98.55,316
98.7,309
98.85,264
99,237
99.15,194
99.3,188
99.45,216
99.6,219
99.75,260
99.9,286
100.05,289
100.2,269
100.35,239
100.5,228
100.65,260
100.8,341
100.95,518
101.1,547
101.25,469
101.4,320
101.55,270
101.7,233
101.85,256
102,289
102.15,315
102.3,461
102.45,573
102.6,558
102.75,445
102.9,321
103.05,224
103.2,199
103.35,205
103.5,219
103.65,271
103.8,370
103.95,492
104.1,490
104.25,372
104.4,248
104.55,199
104.7,217
104.85,259
105,358
105.15,476
105.3,583
105.45,543
105.6,558
105.75,579
105.9,648
106.05,641
106.2,603
106.35,569
106.5,584
106.65,501
106.8,320
106.95,268
107.1,284
107.25,311
107.4,354
107.55,334
107.7,329
107.85,276
108,248
108.15,227
108.3,224
108.45,223
108.6,243
108.75,250
108.9,218
109.05,220
109.2,194
109.35,174
109.5,188
109.65,180
109.8,207
109.95,185
110.1,201
110.25,194
110.4,224
110.55,242
110.7,389
110.85,502
111,694
111.15,680
111.3,598
111.45,454
111.6,375
111.75,377
111.9,340
112.05,360
112.2,457
112.35,583
112.5,695
112.65,713
112.8,576
112.95,354
113.1,315
113.25,361
113.4,477
113.55,693
113.7,974
113.85,1027
114,1014
114.15,781
114.3,486
114.45,296
114.6,275
114.75,279
114.9,276
115.05,252
115.2,229
115.35,275
115.5,391
115.65,505
115.8,642
115.95,603
116.1,462
116.25,309
116.4,262
116.55,283
116.7,319
116.85,370
117,365
117.15,310
117.3,235
117.45,204
117.6,209
117.75,190
117.9,191
118.05,166
118.2,206
118.35,214
118.5,287
118.65,338
118.8,370
118.95,400
119.1,363
119.25,332
119.4,276
119.55,271
119.7,278
119.85,329
120,404
120.15,449
120.3,447
120.45,399
120.6,336
120.75,252
120.9,229
121.05,250
121.2,267
121.35,260
121.5,237
121.65,256
121.8,236
121.95,270
122.1,271
122.25,274
122.4,257
122.55,257
122.7,209
122.85,233
123,220
123.15,269
123.3,293
123.45,385
123.6,348
123.75,338
123.9,338
124.05,344
124.2,247
124.35,239
124.5,238
124.65,207
124.8,254
124.95,308
125.1,376
125.25,460
125.4,576
125.55,603
125.7,606
125.85,600
126,626
126.15,521
126.3,460
126.45,408
126.6,388
126.75,380
126.9,407
127.05,386
127.2,377
127.35,366
127.5,326
127.65,288
127.8,246
127.95,240
128.1,246
128.25,225
128.4,232
128.55,192
128.7,225
128.85,221
129,227
129.15,258
129.3,288
129.45,253
129.6,293
129.75,272
129.9,266
130.05,270
130.2,273
130.35,279
130.5,300
130.65,316
130.8,370
130.95,352
131.1,420
131.25,464
131.4,533
131.55,609
131.7,600
131.85,671
132,629
132.15,516
132.3,486
132.45,388
132.6,348
132.75,338
132.9,312
133.05,303
133.2,302
133.35,337
133.5,348
133.65,343
133.8,333
133.95,298
134.1,293
134.25,285
134.4,253
134.55,255
134.7,239
134.85,215
135,233
135.15,236
135.3,237
135.45,234
135.6,261
135.75,258
135.9,251
136.05,277
136.2,249
136.35,271
136.5,304
136.65,266
136.8,296
136.95,247
137.1,252
137.25,232
137.4,234
137.55,229
137.7,228
137.85,204
138,217
138.15,202
138.3,205
138.45,209
138.6,211
138.75,219
138.9,229
139.05,216
139.2,228
139.35,264
139.5,277
139.65,332
139.8,385
139.95,458
140.1,546
140.25,649
140.4,718
140.55,780
140.7,839
140.85,805
141,753
141.15,613
141.3,490
141.45,350
141.6,298
141.75,269
141.9,261
142.05,281
142.2,286
142.35,347
142.5,347
142.65,389
142.8,388
142.95,427
143.1,427
143.25,396
143.4,407
143.55,385
143.7,364
143.85,352
144,329
144.15,339
144.3,337
144.45,311
144.6,347
144.75,347
144.9,392
145.05,373
145.2,375
145.35,380
145.5,387
145.65,378
145.8,393
145.95,420
146.1,392
146.25,375
146.4,390
146.55,344
146.7,330
146.85,322
147,307
147.15,295
147.3,270
147.45,260
147.6,234
147.75,225
147.9,221
148.05,209
148.2,219
148.35,249
148.5,246
148.65,300
148.8,301
148.95,359
149.1,406
149.25,433
149.4,492
149.55,537
149.7,576
149.85,593
150,581
150.15,592
150.3,538
150.45,521
150.6,471
150.75,440
150.9,416
151.05,351
151.2,322
151.35,295
151.5,282
151.65,285
151.8,267
151.95,259
152.1,260
152.25,251
152.4,264
152.55,256
152.7,274
152.85,276
153,293
153.15,296
153.3,288
153.45,289
153.6,286
153.75,275
153.9,297
154.05,309
154.2,324
154.35,312
154.5,296
154.65,309
154.8,301
154.95,324
155.1,354
155.25,328
155.4,370
155.55,422
155.7,426
155.85,425
156,458
156.15,476
156.3,515
156.45,477
156.6,518
156.75,501
156.9,528
157.05,523
157.2,537
157.35,517
157.5,517
157.65,486
157.8,493
157.95,405
158.1,400
158.25,403
158.4,353
158.55,324
158.7,315
158.85,322
159,311
159.15,285
159.3,287
159.45,306
159.6,288
159.75,281
159.9,290
160.05,305
160.2,303
160.35,279
160.5,304
160.65,291
160.8,316
160.95,311
161.1,323
161.25,302
161.4,301
161.55,325
161.7,303
161.85,311
162,319
162.15,327
162.3,322
162.45,324
162.6,306
162.75,362
162.9,344
163.05,314
163.2,334
163.35,328
163.5,338
163.65,332
163.8,366
163.95,366
164.1,384
164.25,374
164.4,379
164.55,379
164.7,403
164.85,421
165,442
165.15,417
165.3,451
165.45,433
165.6,523
165.75,480
165.9,486
166.05,555
166.2,539
166.35,524
166.5,503
166.65,579
166.8,595
166.95,594
167.1,636
167.25,631
167.4,611
167.55,587
167.7,596
167.75,628