File: data/xrd_icdd_PDF/00-059-0841 (PD3).csv
5,177
5.1,146
5.2,161
5.3,149
5.4,112
5.5,130
5.6,102
5.7,142
5.8,164
5.9,139
6,108
6.1,154
6.2,125
6.3,117
6.4,151
6.5,121
6.6,172
6.7,121
6.8,110
6.9,149
7,144
7.1,132
7.2,159
7.3,108
7.4,108
7.5,100
7.6,146
7.7,104
7.8,159
7.9,137
8,137
8.1,137
8.2,135
8.3,121
8.4,96
8.5,121
8.6,144
8.7,112
8.8,139
8.9,149
9,119
9.1,104
9.2,144
9.3,128
9.4,121
9.5,139
9.6,144
9.7,142
9.8,96
9.9,108
10,104
10.1,128
10.2,135
10.3,144
10.4,112
10.5,146
10.6,130
10.7,114
10.8,86
10.9,121
11,86
11.1,94
11.2,130
11.3,132
11.4,137
11.5,142
11.6,96
11.7,159
11.8,125
11.9,130
12,139
12.1,110
12.2,94
12.3,102
12.4,146
12.5,121
12.6,135
12.7,142
12.8,123
12.9,149
13,159
13.1,123
13.2,121
13.3,106
13.4,156
13.5,169
13.6,174
13.7,149
13.8,164
13.9,139
14,137
14.1,123
14.2,159
14.3,174
14.4,174
14.5,156
14.6,139
14.7,159
14.8,169
14.9,151
15,139
15.1,228
15.2,282
15.3,396
15.4,713
15.5,660
15.6,237
15.7,199
15.8,130
15.9,139
16,137
16.1,156
16.2,144
16.3,185
16.4,144
16.5,166
16.6,164
16.7,185
16.8,169
16.9,188
17,240
17.1,328
17.2,493
17.3,279
17.4,166
17.5,182
17.6,177
17.7,144
17.8,182
17.9,185
18,185
18.1,188
18.2,216
18.3,185
18.4,262
18.5,369
18.6,745
18.7,1063
18.8,361
18.9,225
19,154
19.1,213
19.2,166
19.3,130
19.4,159
19.5,172
19.6,169
19.7,216
19.8,228
19.9,306
20,576
20.1,400
20.2,216
20.3,172
20.4,169
20.5,174
20.6,151
20.7,174
20.8,137
20.9,106
21,108
21.1,149
21.2,137
21.3,144
21.4,128
21.5,144
21.6,112
21.7,128
21.8,110
21.9,94
22,123
22.1,90
22.2,142
22.3,144
22.4,172
22.5,169
22.6,199
22.7,228
22.8,112
22.9,151
23,144
23.1,137
23.2,132
23.3,146
23.4,106
23.5,164
23.6,100
23.7,174
23.8,279
23.9,185
24,121
24.1,100
24.2,85
24.3,96
24.4,92
24.5,94
24.6,123
24.7,144
24.8,313
24.9,412
25,210
25.1,164
25.2,100
25.3,142
25.4,130
25.5,159
25.6,174
25.7,353
25.8,740
25.9,2007
26,2421
26.1,671
26.2,256
26.3,159
26.4,135
26.5,119
26.6,128
26.7,164
26.8,130
26.9,149
27,149
27.1,164
27.2,188
27.3,193
27.4,262
27.5,210
27.6,190
27.7,276
27.8,534
27.9,1303
28,3636
28.1,4045
28.2,1225
28.3,708
28.4,824
28.5,506
28.6,313
28.7,428
28.8,936
28.9,2440
29,2034
29.1,708
29.2,253
29.3,216
29.4,219
29.5,237
29.6,125
29.7,128
29.8,137
29.9,151
30,123
30.1,130
30.2,108
30.3,112
30.4,146
30.5,123
30.6,100
30.7,137
30.8,146
30.9,169
31,313
31.1,824
31.2,1310
31.3,529
31.4,185
31.5,180
31.6,202
31.7,276
31.8,161
31.9,130
32,85
32.1,149
32.2,121
32.3,110
32.4,137
32.5,231
32.6,412
32.7,234
32.8,156
32.9,123
33,96
33.1,146
33.2,135
33.3,204
33.4,562
33.5,1296
33.6,1190
33.7,433
33.8,174
33.9,117
34,121
34.1,164
34.2,266
34.3,562
34.4,552
34.5,250
34.6,237
34.7,346
34.8,605
34.9,416
35,400
35.1,835
35.2,620
35.3,282
35.4,392
35.5,488
35.6,697
35.7,441
35.8,441
35.9,376
36,180
36.1,110
36.2,125
36.3,123
36.4,142
36.5,324
36.6,529
36.7,289
36.8,104
36.9,108
37,79
37.1,90
37.2,119
37.3,282
37.4,256
37.5,119
37.6,79
37.7,85
37.8,112
37.9,154
38,128
38.1,74
38.2,59
38.3,71
38.4,114
38.5,86
38.6,83
38.7,96
38.8,104
38.9,246
39,199
39.1,174
39.2,77
39.3,81
39.4,104
39.5,169
39.6,188
39.7,117
39.8,112
39.9,90
40,86
40.1,151
40.2,317
40.3,320
40.4,400
40.5,511
40.6,795
40.7,1005
40.8,858
40.9,475
41,376
41.1,480
41.2,376
41.3,310
41.4,488
41.5,1436
41.6,1689
41.7,986
41.8,576
41.9,384
42,216
42.1,149
42.2,144
42.3,151
42.4,161
42.5,100
42.6,64
42.7,114
42.8,98
42.9,156
43,193
43.1,207
43.2,144
43.3,94
43.4,123
43.5,85
43.6,159
43.7,222
43.8,445
43.9,751
44,534
44.1,199
44.2,156
44.3,164
44.4,159
44.5,128
44.6,144
44.7,225
44.8,630
44.9,729
45,484
45.1,207
45.2,166
45.3,135
45.4,96
45.5,85
45.6,104
45.7,72
45.8,90
45.9,71
46,102
46.1,156
46.2,296
46.3,552
46.4,454
46.5,219
46.6,149
46.7,142
46.8,164
46.9,216
47,441
47.1,361
47.2,243
47.3,146
47.4,164
47.5,149
47.6,361
47.7,320
47.8,262
47.9,77
48,90
48.1,96
48.2,77
48.3,128
48.4,182
48.5,253
48.6,557
48.7,745
48.8,581
48.9,454
49,408
49.1,231
49.2,135
49.3,117
49.4,96
49.5,106
49.6,121
49.7,128
49.8,114
49.9,154
50,292
50.1,174
50.2,151
50.3,88
50.4,92
50.5,130
50.6,269
50.7,246
50.8,210
50.9,166
51,177
51.1,182
51.2,207
51.3,416
51.4,864
51.5,655
51.6,571
51.7,462
51.8,520
51.9,676
52,511
52.1,246
52.2,137
52.3,77
52.4,128
52.5,88
52.6,172
52.7,169
52.8,177
52.9,139
53,279
53.1,369
53.2,595
53.3,600
53.4,484
53.5,202
53.6,154
53.7,121
53.8,185
53.9,250
54,445
54.1,313
54.2,207
54.3,88
54.4,86
54.5,76
54.6,137
54.7,177
54.8,353
54.9,353
55,320
55.1,279
55.2,650
55.3,497
55.4,361
55.5,174
55.6,174
55.7,188
55.8,246
55.9,331
56,620
56.1,1332
56.2,1076
56.3,795
56.4,365
56.5,213
56.6,207
56.7,132
56.8,142
56.9,106
57,166
57.1,416
57.2,408
57.3,303
57.4,174
57.5,102
57.6,135
57.7,282
57.8,240
57.9,306
58,320
58.1,262
58.2,306
58.3,213
58.4,180
58.5,135
58.6,199
58.7,313
58.8,350
58.9,380
59,458
59.1,404
59.2,620
59.3,552
59.4,437
59.5,266
59.6,156
59.7,132
59.8,296
59.9,458
60,350
60.1,240
60.2,142
60.3,121
60.4,182
60.5,286
60.6,269
60.7,313
60.8,467
60.9,384
61,350
61.1,219
61.2,219
61.3,346
61.4,433
61.5,396
61.6,269
61.7,228
61.8,219
61.9,185
62,272
62.1,234
62.2,210
62.3,177
62.4,174
62.5,376
62.6,331
62.7,369
62.8,369
62.9,272
63,182
63.1,161
63.2,149
63.3,204
63.4,185
63.5,199
63.6,137
63.7,117
63.8,128
63.9,142
64,188
64.1,174
64.2,174
64.3,130
64.4,121
64.5,92
64.6,144
64.7,262
64.8,282
64.9,250
65,202
65.1,169
65.2,231
65.3,196
65.4,121
65.5,121
65.6,76
65.7,52
65.8,98
65.9,128
66,71
66.1,149
66.2,100
66.3,94
66.4,139
66.5,199
66.6,259
66.7,196
66.8,161
66.9,102
67,166
67.1,161
67.2,169
67.3,135
67.4,98
67.5,132
67.6,196
67.7,174
67.8,276
67.9,437
68,324
68.1,303
68.2,177
68.3,154
68.4,146
68.5,142
68.6,112
68.7,85
68.8,74
68.9,79
69,46
69.1,112
69.2,88
69.3,180
69.4,180
69.5,132
69.6,169
69.7,202
69.8,159
69.9,146
70,135
70.1,180
70.2,342
70.3,339
70.4,231
70.5,266
70.6,172
70.7,128
70.8,166
70.9,149
71,276
71.1,210
71.2,225
71.3,240
71.4,313
71.5,335
71.6,269
71.7,228
71.8,151
71.9,174
72,202
72.1,225
72.2,210
72.3,231
72.4,210
72.5,266
72.6,299
72.7,353
72.8,342
72.9,445
73,392
73.1,282
73.2,256
73.3,182
73.4,177
73.5,104
73.6,154
73.7,110
73.8,117
73.9,108
74,135
74.1,123
74.2,137
74.3,117
74.4,90
74.5,156
74.6,114
74.7,106
74.8,144
74.9,119
75,117
75.1,159
75.2,123
75.3,106
75.4,156
75.5,104
75.6,185
75.7,182
75.8,188
75.9,303
76,279
76.1,240
76.2,234
76.3,225
76.4,219
76.5,246
76.6,250
76.7,216
76.8,166
76.9,159
77,142
77.1,77
77.2,106
77.3,83
77.4,88
77.5,96
77.6,121
77.7,169
77.8,219
77.9,219
78,144
78.1,182
78.2,142
78.3,196
78.4,149
78.5,196
78.6,142
78.7,164
78.8,193
78.9,193
79,207
79.1,172
79.2,159
79.3,139
79.4,125
79.5,130
79.6,114
79.7,149
79.8,142
79.9,114
80,164
80.1,185
80.2,231
80.3,243
80.4,313
80.5,320
80.6,240
80.7,262
80.8,331
80.9,365
81,353
81.1,357
81.2,313
81.3,256
81.4,169
81.5,234
81.6,296
81.7,303
81.8,259
81.9,310
82,306
82.1,225
82.2,240
82.3,188
82.4,174
82.5,180
82.6,128
82.7,130
82.8,166
82.9,146
83,135
83.1,121
83.2,159
83.3,182
83.4,202
83.5,237
83.6,228
83.7,246
83.8,207
83.9,193
84,177
84.1,180
84.2,154
84.3,177
84.4,159
84.5,102
84.6,174
84.7,119
84.8,144
84.9,119
85,164
85.1,169
85.2,234
85.3,202
85.4,222
85.5,199
85.6,174
85.7,174
85.8,156
85.9,151
86,151
86.1,139
86.2,96
86.3,125
86.4,106
86.5,72
86.6,79
86.7,88
86.8,137
86.9,119
87,130
87.1,156
87.2,266
87.3,353
87.4,303
87.5,246
87.6,256
87.7,193
87.8,159
87.9,185
88,199
88.1,182
88.2,210
88.3,164
88.4,177
88.5,185
88.6,144
88.7,117
88.8,130
88.9,112
89,146
89.1,121
89.2,190
89.3,146
89.4,135
89.5,125
89.6,159
89.7,98
89.8,96
89.9,137
90,81
90.1,121
90.2,161
90.3,279
90.4,266
90.5,225
90.6,222
90.7,222
90.8,169
90.9,222
91,289
91.1,299
91.2,216
91.3,310
91.4,306
91.5,237
91.6,161
91.7,193
91.8,172
91.9,151
92,137
92.1,166
92.2,154
92.3,237
92.4,207
92.5,182
92.6,222
92.7,177
92.8,174
92.9,156
93,151
93.1,204
93.2,272
93.3,193
93.4,289
93.5,320
93.6,279
93.7,225
93.8,204
93.9,225
94,156
94.1,164
94.2,202
94.3,219
94.4,172
94.5,154
94.6,213
94.7,202
94.8,193
94.9,219
95,185
95.1,180
95.2,234
95.3,188
95.4,190
95.5,185
95.6,164
95.7,204
95.8,169
95.9,177
96,180
96.1,182
96.2,123
96.3,144
96.4,108
96.5,106
96.6,144
96.7,174
96.8,199
96.9,161
97,219
97.1,266
97.2,240
97.3,219
97.4,180
97.5,216
97.6,213
97.7,164
97.8,142
97.9,172
98,123
98.1,112
98.2,119
98.3,144
98.4,144
98.5,117
98.6,108
98.7,117
98.8,106
98.9,135
99,114
99.1,119
99.2,100
99.3,125
99.4,102
99.5,121
99.6,102
99.7,125
99.8,104
99.9,125
100,96
100.1,121
100.2,119
100.3,185
100.4,117
100.5,108
100.6,135
100.7,139
100.8,83
100.9,88
101,130
101.1,135
101.2,102
101.3,117
101.4,112
101.5,112
101.6,114
101.7,119
101.8,149
101.9,114
102,161
102.1,135
102.2,121
102.3,154
102.4,142
102.5,130
102.6,132
102.7,110
102.8,130
102.9,119
103,112
103.1,132
103.2,86
103.3,106
103.4,117
103.5,67
103.6,100
103.7,102
103.8,132
103.9,139
104,177
104.1,144
104.2,166
104.3,146
104.4,98
104.5,106
104.6,142
104.7,83
104.8,83
104.9,102
105,79
105.1,130
105.2,132
105.3,119
105.4,114
105.5,90
105.6,144
105.7,94
105.8,123
105.9,154
106,121
106.1,174
106.2,182
106.3,210
106.4,177
106.5,177
106.6,135
106.7,188
106.8,151
106.9,117
107,144
107.1,130
107.2,125
107.3,159
107.4,161
107.5,81
107.6,123
107.7,100
107.8,119
107.9,132
108,119
108.1,98
108.2,112
108.3,100
108.4,117
108.5,98
108.6,108
108.7,104
108.8,108
108.9,81
109,100
109.1,90
109.2,106
109.3,139
109.4,125
109.5,142
109.6,164
109.7,149
109.8,151
109.9,132
110,196
110.1,128
110.2,94
110.3,154
110.4,121
110.5,119
110.6,71
110.7,98
110.8,85
110.9,76
111,125
111.1,83
111.2,90
111.3,67
111.4,86
111.5,79
111.6,132
111.7,146
111.8,154
111.9,149
112,102
112.1,92
112.2,106
112.3,79
112.4,102
112.5,102
112.6,117
112.7,132
112.8,86
112.9,71
113,137
113.1,125
113.2,128
113.3,85
113.4,92
113.5,83
113.6,83
113.7,114
113.8,72
113.9,59
114,106
114.1,71
114.2,98
114.3,123
114.4,81
114.5,86
114.6,108
114.7,106
114.8,69
114.9,86
115,85
115.1,154
115.2,135
115.3,135
115.4,90
115.5,117
115.6,106
115.7,125
115.8,114
115.9,119
116,98
116.1,77
116.2,149
116.3,130
116.4,172
116.5,177
116.6,132
116.7,100
116.8,130
116.9,188
117,125
117.1,146
117.2,128
117.3,154
117.4,169
117.5,166
117.6,151
117.7,146
117.8,123
117.9,98
118,137
118.1,144
118.2,159
118.3,174
118.4,188
118.5,222
118.6,216
118.7,199
118.8,188
118.9,259
119,225
119.1,296
119.2,228
119.3,219
119.4,169
119.5,185
119.6,164
119.7,166
119.8,174
119.9,117
120,185
120.1,137
120.2,180
120.3,117
120.4,121
120.5,164
120.6,182
120.7,204
120.8,188
120.9,149
121,135
121.1,119
121.2,154
121.3,123
121.4,166
121.5,185
121.6,188
121.7,130
121.8,166
121.9,151
122,216
122.1,210
122.2,202
122.3,207
122.4,204
122.5,180
122.6,139
122.7,132
122.8,154
122.9,108
123,114
123.1,137
123.2,125
123.3,86
123.4,112
123.5,142
123.6,86
123.7,159
123.8,125
123.9,159
124,117
124.1,151
124.2,94
124.3,137
124.4,112
124.5,110
124.6,154
124.7,128
124.8,119
124.9,144
125,114
125.1,146
125.2,139
125.3,144
125.4,128
125.5,88
125.6,135
125.7,142
125.8,169
125.9,172
126,182
126.1,121
126.2,159
126.3,142
126.4,137
126.5,210
126.6,182
126.7,202
126.8,128
126.9,137
127,151
127.1,169
127.2,190
127.3,207
127.4,177
127.5,130
127.6,166
127.7,137
127.8,177
127.9,182
128,123
128.1,121
128.2,154
128.3,125
128.4,146
128.5,100
128.6,104
128.7,114
128.8,151
128.9,146
129,121
129.1,182
129.2,142
129.3,135
129.4,154
129.5,130
129.6,146
129.7,144
129.8,156
129.9,137
130,161
130.1,142
130.2,123
130.3,156
130.4,151
130.5,164
130.6,132
130.7,177
130.8,119
130.9,98
131,149
131.1,135
131.2,130
131.3,106
131.4,108
131.5,110
131.6,128
131.7,106
131.8,106
131.9,142
132,151
132.1,90
132.2,137
132.3,161
132.4,149
132.5,125
132.6,154
132.7,190
132.8,156
132.9,123
133,166
133.1,156
133.2,151
133.3,172
133.4,159
133.5,151
133.6,144
133.7,149
133.8,177
133.9,177
134,156
134.1,154
134.2,149
134.3,114
134.4,132
134.5,166
134.6,132
134.7,154
134.8,177
134.9,135
135,144
135.1,112
135.2,119
135.3,161
135.4,149
135.5,151
135.6,161
135.7,130
135.8,154
135.9,174
136,132
136.1,210
136.2,196
136.3,130
136.4,130
136.5,142
136.6,137
136.7,180
136.8,128
136.9,123
137,130
137.1,151
137.2,149
137.3,199
137.4,161
137.5,169
137.6,166
137.7,182
137.8,177
137.9,121
138,151
138.1,164
138.2,154
138.3,164
138.4,166
138.5,142
138.6,130
138.7,169
138.8,156
138.9,106
139,121
139.1,135
139.2,123
139.3,154
139.4,112
139.5,139
139.6,169
139.7,172
139.8,121
139.88,130