File: data/xrd_icdd_PDF/00-061-0130 (PD3).csv
5,680
5.08,714
5.16,646
5.24,641
5.32,624
5.4,540
5.48,610
5.56,562
5.64,596
5.72,584
5.8,517
5.88,551
5.96,511
6.04,542
6.12,520
6.2,514
6.28,466
6.36,469
6.44,444
6.52,472
6.6,438
6.68,405
6.76,495
6.84,416
6.92,393
7,461
7.08,422
7.16,427
7.24,382
7.32,388
7.4,382
7.48,365
7.56,393
7.64,377
7.72,399
7.8,393
7.88,337
7.96,351
8.04,303
8.12,362
8.2,371
8.28,301
8.36,334
8.44,329
8.52,340
8.6,281
8.68,309
8.76,315
8.84,326
8.92,303
9,270
9.08,287
9.16,256
9.24,275
9.32,259
9.4,281
9.48,275
9.56,267
9.64,270
9.72,267
9.8,259
9.88,247
9.96,270
10.04,230
10.12,214
10.2,216
10.28,236
10.36,270
10.44,253
10.52,225
10.6,236
10.68,219
10.76,219
10.84,242
10.92,219
11,256
11.08,225
11.16,259
11.24,225
11.32,253
11.4,256
11.48,239
11.56,230
11.64,236
11.72,211
11.8,202
11.88,188
11.96,202
12.04,208
12.12,214
12.2,197
12.28,202
12.36,194
12.44,169
12.52,197
12.6,214
12.68,169
12.76,180
12.84,202
12.92,191
13,211
13.08,219
13.16,230
13.24,371
13.32,461
13.4,312
13.48,225
13.56,185
13.64,152
13.72,202
13.8,169
13.88,194
13.96,157
14.04,146
14.12,208
14.2,216
14.28,180
14.36,197
14.44,174
14.52,157
14.6,185
14.68,273
14.76,270
14.84,278
14.92,200
15,191
15.08,169
15.16,183
15.24,169
15.32,171
15.4,149
15.48,152
15.56,135
15.64,180
15.72,169
15.8,149
15.88,163
15.96,171
16.04,160
16.12,163
16.2,180
16.28,171
16.36,169
16.44,149
16.52,185
16.6,180
16.68,146
16.76,152
16.84,146
16.92,169
17,143
17.08,174
17.16,157
17.24,152
17.32,157
17.4,157
17.48,149
17.56,149
17.64,146
17.72,152
17.8,174
17.88,143
17.96,135
18.04,149
18.12,152
18.2,169
18.28,132
18.36,174
18.44,216
18.52,214
18.6,191
18.68,157
18.76,124
18.84,157
18.92,146
19,152
19.08,146
19.16,152
19.24,135
19.32,143
19.4,214
19.48,239
19.56,225
19.64,250
19.72,152
19.8,129
19.88,157
19.96,135
20.04,157
20.12,157
20.2,157
20.28,135
20.36,146
20.44,166
20.52,163
20.6,146
20.68,191
20.76,157
20.84,188
20.92,247
21,267
21.08,169
21.16,143
21.24,160
21.32,149
21.4,180
21.48,155
21.56,141
21.64,146
21.72,185
21.8,180
21.88,174
21.96,202
22.04,289
22.12,556
22.2,1043
22.28,995
22.36,385
22.44,230
22.52,157
22.6,191
22.68,214
22.76,208
22.84,192
22.92,203
23,192
23.08,174
23.16,219
23.24,259
23.32,483
23.4,984
23.48,1026
23.56,736
23.64,1096
23.72,1132
23.8,624
23.88,309
23.96,259
24.04,214
24.12,185
24.2,202
24.28,202
24.36,275
24.44,452
24.52,759
24.6,832
24.68,719
24.76,1309
24.84,2355
24.92,1759
25,753
25.08,438
25.16,236
25.24,185
25.32,253
25.4,247
25.48,194
25.56,214
25.64,202
25.72,174
25.8,216
25.88,197
25.96,219
26.04,202
26.12,183
26.2,202
26.28,214
26.36,225
26.44,185
26.52,214
26.6,236
26.68,289
26.76,312
26.84,292
26.92,393
27,466
27.08,438
27.16,264
27.24,259
27.32,289
27.4,287
27.48,236
27.56,253
27.64,275
27.72,275
27.8,278
27.88,284
27.96,315
28.04,284
28.12,280
28.2,259
28.28,283
28.36,267
28.44,382
28.52,554
28.6,476
28.68,351
28.76,274
28.84,281
28.92,294
29,249
29.08,275
29.16,256
29.24,274
29.32,297
29.4,300
29.48,341
29.56,410
29.64,624
29.72,745
29.8,680
29.88,528
29.96,556
30.04,478
30.12,495
30.2,545
30.28,627
30.36,747
30.44,1321
30.52,2717
30.6,8028
30.68,11858
30.76,7379
30.84,2816
30.92,1281
31,1034
31.08,812
31.16,795
31.24,888
31.32,1155
31.4,1624
31.48,2956
31.56,5005
31.64,6289
31.72,10709
31.8,13409
31.88,8978
31.96,4001
32.04,1869
32.12,1249
32.2,972
32.28,809
32.36,864
32.44,895
32.52,754
32.6,623
32.68,564
32.76,640
32.84,601
32.92,852
33,1384
33.08,2119
33.16,2760
33.24,5255
33.32,7726
33.4,5887
33.48,2840
33.56,1314
33.64,882
33.72,742
33.8,635
33.88,627
33.96,624
34.04,635
34.12,798
34.2,905
34.28,1694
34.36,3777
34.44,5884
34.52,5850
34.6,3560
34.68,1686
34.76,1003
34.84,989
34.92,1456
35,1742
35.08,1354
35.16,812
35.24,556
35.32,475
35.4,559
35.48,568
35.56,686
35.64,1135
35.72,2790
35.8,4119
35.88,3187
35.96,1475
36.04,607
36.12,495
36.2,427
36.28,444
36.36,410
36.44,405
36.52,466
36.6,506
36.68,747
36.76,1708
36.84,2422
36.92,1742
37,1146
37.08,680
37.16,604
37.24,551
37.32,688
37.4,747
37.48,818
37.56,844
37.64,681
37.72,568
37.8,665
37.88,995
37.96,1197
38.04,1253
38.12,1658
38.2,1843
38.28,1270
38.36,742
38.44,483
38.52,405
38.6,433
38.68,391
38.76,503
38.84,570
38.92,601
39,697
39.08,792
39.16,767
39.24,627
39.32,565
39.4,837
39.48,1394
39.56,2422
39.64,2779
39.72,2012
39.8,1180
39.88,686
39.96,540
40.04,461
40.12,542
40.2,584
40.28,472
40.36,422
40.44,393
40.52,323
40.6,309
40.68,346
40.76,306
40.84,315
40.92,275
41,292
41.08,303
41.16,270
41.24,303
41.32,326
41.4,264
41.48,326
41.56,298
41.64,368
41.72,514
41.8,624
41.88,1298
41.96,2647
42.04,2785
42.12,1919
42.2,1085
42.28,995
42.36,989
42.44,989
42.52,961
42.6,663
42.68,511
42.76,362
42.84,365
42.92,326
43,326
43.08,326
43.16,329
43.24,326
43.32,382
43.4,469
43.48,556
43.56,646
43.64,837
43.72,969
43.8,922
43.88,1102
43.96,1939
44.04,2501
44.12,1692
44.2,1012
44.28,556
44.36,393
44.44,405
44.52,343
44.6,348
44.68,320
44.76,312
44.84,371
44.92,357
45,486
45.08,674
45.16,1116
45.24,1363
45.32,1669
45.4,1714
45.48,1354
45.56,877
45.64,646
45.72,759
45.8,1270
45.88,1950
45.96,1967
46.04,1304
46.12,686
46.2,469
46.28,416
46.36,478
46.44,525
46.52,686
46.6,697
46.68,503
46.76,399
46.84,337
46.92,360
47,399
47.08,478
47.16,638
47.24,905
47.32,877
47.4,674
47.48,506
47.56,410
47.64,422
47.72,579
47.8,747
47.88,829
47.96,627
48.04,528
48.12,500
48.2,444
48.28,422
48.36,509
48.44,450
48.52,407
48.6,337
48.68,281
48.76,259
48.84,242
48.92,267
49,320
49.08,264
49.16,267
49.24,264
49.32,309
49.4,284
49.48,289
49.56,354
49.64,416
49.72,556
49.8,584
49.88,534
49.96,450
50.04,416
50.12,410
50.2,528
50.28,599
50.36,596
50.44,540
50.52,506
50.6,495
50.68,629
50.76,972
50.84,2147
50.92,2594
51,2653
51.08,2029
51.16,1340
51.24,972
51.32,821
51.4,933
51.48,1217
51.56,1599
51.64,1641
51.72,1220
51.8,865
51.88,742
51.96,742
52.04,705
52.12,601
52.2,483
52.28,410
52.36,329
52.44,315
52.52,242
52.6,287
52.68,253
52.76,270
52.84,259
52.92,289
53,273
53.08,320
53.16,343
53.24,514
53.32,731
53.4,933
53.48,756
53.56,607
53.64,438
53.72,399
53.8,377
53.88,315
53.96,259
54.04,334
54.12,309
54.2,354
54.28,422
54.36,427
54.44,472
54.52,663
54.6,753
54.68,753
54.76,717
54.84,674
54.92,989
55,1349
55.08,1933
55.16,2029
55.24,1554
55.32,1169
55.4,910
55.48,742
55.56,747
55.64,691
55.72,475
55.8,444
55.88,405
55.96,348
56.04,391
56.12,354
56.2,377
56.28,382
56.36,326
56.44,365
56.52,343
56.6,374
56.68,458
56.76,478
56.84,472
56.92,424
57,441
57.08,405
57.16,396
57.24,361
57.32,379
57.4,384
57.48,386
57.56,450
57.64,497
57.72,491
57.8,456
57.88,410
57.96,410
58.04,347
58.12,367
58.2,394
58.28,632
58.36,910
58.44,919
58.52,736
58.6,601
58.68,458
58.76,410
58.84,458
58.92,540
59,568
59.08,607
59.16,753
59.24,776
59.32,660
59.4,635
59.48,579
59.56,517
59.64,556
59.72,584
59.8,523
59.88,573
59.96,660
60.04,719
60.12,607
60.2,517
60.28,511
60.36,534
60.44,601
60.52,714
60.6,691
60.68,649
60.76,590
60.84,525
60.92,450
61,427
61.08,523
61.16,613
61.24,652
61.32,764
61.4,874
61.48,1228
61.56,1767
61.64,2360
61.72,2835
61.8,2602
61.88,2197
61.96,1725
62.04,1843
62.12,2006
62.2,1737
62.28,1548
62.36,1332
62.44,961
62.52,843
62.6,686
62.68,705
62.76,739
62.84,686
62.92,660
63,742
63.08,843
63.16,964
63.24,1012
63.32,1377
63.4,1523
63.48,1276
63.56,1427
63.64,1683
63.72,2169
63.8,1978
63.88,1506
63.96,1231
64.04,753
64.12,593
64.2,511
64.28,495
64.36,624
64.44,534
64.52,562
64.6,469
64.68,354
64.76,371
64.84,377
64.92,393
65,422
65.08,464
65.16,686
65.24,1037
65.32,944
65.4,840
65.48,719
65.56,579
65.64,545
65.72,618
65.8,674
65.88,697
65.96,680
66.04,714
66.12,936
66.2,1399
66.28,1812
66.36,2136
66.44,1956
66.52,1529
66.6,1236
66.68,995
66.76,871
66.84,835
66.92,787
67,652
67.08,590
67.16,523
67.24,447
67.32,410
67.4,365
67.48,371
67.56,438
67.64,472
67.72,551
67.8,601
67.88,556
67.96,458
68.04,441
68.12,382
68.2,371
68.28,332
68.36,348
68.44,371
68.52,343
68.6,337
68.68,382
68.76,410
68.84,377
68.92,388
69,450
69.08,556
69.16,669
69.24,663
69.32,728
69.4,843
69.48,1000
69.56,910
69.64,815
69.72,742
69.8,663
69.88,511
69.96,562
70.04,500
70.12,528
70.2,562
70.28,618
70.36,573
70.44,548
70.52,500
70.6,438
70.68,377
70.76,466
70.84,511
70.92,534
71,556
71.08,523
71.16,466
71.24,399
71.32,450
71.4,466
71.48,466
71.56,438
71.64,466
71.72,483
71.8,447
71.88,466
71.96,455
72.04,444
72.12,495
72.2,565
72.28,672
72.36,629
72.44,593
72.52,551
72.6,506
72.68,554
72.76,739
72.84,641
72.92,540
73,542
73.08,447
73.16,433
73.24,464
73.32,511
73.4,523
73.48,523
73.56,486
73.64,562
73.72,562
73.8,646
73.88,719
73.96,674
74.04,691
74.12,725
74.2,646
74.28,618
74.36,601
74.44,545
74.52,478
74.6,455
74.68,455
74.76,551
74.84,573
74.92,559
75,495
75.08,520
75.16,433
75.24,481
75.32,593
75.4,641
75.48,649
75.56,719
75.64,891
75.72,1158
75.8,1276
75.88,995
75.96,927
76.04,770
76.12,590
76.2,568
76.28,719
76.36,694
76.44,568
76.52,545
76.6,500
76.68,382
76.76,360
76.84,326
76.92,332
77,312
77.08,298
77.16,295
77.24,298
77.32,320
77.4,343
77.48,287
77.56,303
77.64,298
77.72,332
77.8,334
77.88,360
77.96,422
78.04,610
78.12,717
78.2,641
78.28,562
78.36,540
78.44,486
78.52,377
78.6,320
78.68,374
78.76,354
78.84,340
78.92,385
79,436
79.08,540
79.16,568
79.24,607
79.32,576
79.4,503
79.48,551
79.56,629
79.64,500
79.72,469
79.8,441
79.88,461
79.96,444
80.04,405
80.12,436
80.2,483
80.28,422
80.36,452
80.44,461
80.52,360
80.6,393
80.68,329
80.76,315
80.84,295
80.92,309
81,303
81.08,309
81.16,298
81.24,362
81.32,360
81.4,399
81.48,388
81.56,382
81.64,332
81.72,337
81.8,303
81.88,332
81.96,315
82.04,303
82.12,354
82.2,318
82.28,332
82.36,343
82.44,351
82.52,360
82.6,348
82.68,329
82.76,354
82.84,388
82.92,399
83,371
83.08,410
83.16,464
83.24,433
83.32,534
83.4,545
83.48,590
83.56,627
83.64,461
83.72,584
83.8,540
83.88,472
83.96,419
84.04,393
84.12,478
84.2,545
84.28,680
84.36,646
84.44,528
84.52,568
84.6,562
84.68,486
84.76,500
84.84,455
84.92,450
85,433
85.08,405
85.16,455
85.24,407
85.32,388
85.4,388
85.48,405
85.56,466
85.64,523
85.72,579
85.8,483
85.88,466
85.96,458
86.04,452
86.12,365
86.2,424
86.28,371
86.36,371
86.44,360
86.52,374
86.6,399
86.68,348
86.76,320
86.84,365
86.92,326
87,377
87.08,385
87.16,354
87.24,452
87.32,497
87.4,483
87.48,545
87.56,590
87.64,697
87.72,534
87.8,483
87.88,500
87.96,556
88.04,492
88.12,506
88.2,489
88.28,523
88.36,528
88.44,573
88.52,570
88.6,601
88.68,703
88.76,669
88.84,599
88.92,688
89,674
89.08,747
89.16,745
89.24,753
89.32,700
89.4,686
89.48,590
89.56,573
89.64,506
89.72,450
89.8,413
89.88,430
89.96,360
90.04,402
90.12,413
90.2,416
90.28,489
90.36,540
90.44,627
90.52,677
90.6,584
90.68,607
90.76,714
90.84,719
90.92,688
91,545
91.08,590
91.16,579
91.24,604
91.32,551
91.4,489
91.48,466
91.56,466
91.64,466
91.72,407
91.8,433
91.88,458
91.96,523
92.04,472
92.12,472
92.2,444
92.28,503
92.36,455
92.44,430
92.52,410
92.6,399
92.68,424
92.76,416
92.84,382
92.92,393
93,441
93.08,455
93.16,511
93.24,438
93.32,424
93.4,450
93.48,483
93.56,464
93.64,534
93.72,534
93.8,481
93.88,433
93.96,424
94.04,427
94.12,360
94.2,382
94.28,362
94.36,337
94.44,368
94.52,371
94.6,329
94.68,337
94.76,360
94.84,365
94.92,348
95,362
95.08,371
95.16,379
95.24,430
95.32,472
95.4,523
95.48,540
95.56,492
95.64,475
95.72,478
95.8,405
95.88,466
95.96,466
96.04,570
96.12,582
96.2,511
96.28,556
96.36,624
96.44,599
96.52,556
96.6,489
96.68,447
96.76,481
96.84,458
96.92,528
97,489
97.08,447
97.16,452
97.24,410
97.32,405
97.4,388
97.48,332
97.56,377
97.64,348
97.72,306
97.8,320
97.88,337
97.96,351
98.04,354
98.12,337
98.2,340
98.28,354
98.36,320
98.44,315
98.52,326
98.6,326
98.68,306
98.76,326
98.84,326
98.92,348
99,351
99.08,382
99.16,413
99.24,410
99.32,410
99.4,391
99.48,427
99.56,455
99.64,478
99.72,410
99.8,427
99.88,427
99.96,416
100.04,422
100.12,489
100.2,509
100.28,646
100.36,669
100.44,646
100.52,697
100.6,632
100.68,759
100.76,725
100.84,677
100.92,596
101,607
101.08,747
101.16,708
101.24,745
101.32,635
101.4,582
101.48,629
101.56,686
101.64,781
101.72,849
101.8,967
101.88,995
101.96,1012
102.04,1141
102.12,1312
102.2,1340
102.28,1343
102.36,1149
102.44,1017
102.52,1003
102.6,984
102.68,711
102.76,658
102.84,528
102.92,562
103,545
103.08,430
103.16,455
103.24,461
103.32,413
103.4,422
103.48,511
103.56,556
103.64,646
103.72,703
103.8,635
103.88,562
103.96,540
104.04,596
104.12,568
104.2,483
104.28,500
104.36,495
104.44,455
104.52,478
104.6,540
104.68,528
104.76,506
104.84,461
104.92,461
105,469
105.08,450
105.16,391
105.24,416
105.32,436
105.4,405
105.48,450
105.56,427
105.64,497
105.72,486
105.8,461
105.88,410
105.96,444
106.04,427
106.12,455
106.2,551
106.28,568
106.36,472
106.44,511
106.52,514
106.6,509
106.68,506
106.76,481
106.84,438
106.92,483
107,489
107.08,497
107.16,472
107.24,458
107.32,450
107.4,410
107.48,371
107.56,365
107.64,388
107.72,393
107.8,354
107.88,337
107.96,371
108.04,385
108.12,371
108.2,365
108.28,410
108.36,407
108.44,410
108.52,416
108.6,388
108.68,337
108.76,393
108.84,416
108.92,368
109,388
109.08,371
109.16,371
109.24,371
109.32,413
109.4,422
109.48,433
109.56,430
109.64,483
109.72,461
109.8,416
109.88,466
109.96,466
110.04,455
110.12,486
110.2,377
110.28,374
110.36,385
110.44,461
110.52,458
110.6,433
110.68,447
110.76,413
110.84,427
110.92,461
111,478
111.08,478
111.16,517
111.24,478
111.32,455
111.4,478
111.48,461
111.56,436
111.64,461
111.72,407
111.8,410
111.88,461
111.96,427
112.04,410
112.12,422
112.2,436
112.28,422
112.36,385
112.44,422
112.52,469
112.6,478
112.68,489
112.76,461
112.84,416
112.92,500
113,481
113.08,399
113.16,388
113.24,419
113.32,450
113.4,416
113.48,444
113.56,458
113.64,472
113.72,427
113.8,422
113.88,472
113.96,472
114.04,548
114.12,523
114.2,481
114.28,416
114.36,441
114.44,500
114.52,478
114.6,478
114.68,478
114.76,466
114.84,368
114.92,399
115,371
115.08,413
115.16,413
115.24,422
115.32,377
115.4,422
115.48,430
115.56,371
115.64,438
115.72,444
115.8,416
115.88,450
115.96,478
116.04,489
116.12,486
116.2,472
116.28,500
116.36,422
116.44,444
116.52,506
116.6,523
116.68,534
116.76,517
116.84,486
116.92,523
117,514
117.08,517
117.16,483
117.24,466
117.32,523
117.4,506
117.48,483
117.56,478
117.64,475
117.72,441
117.8,433
117.88,464
117.96,489
118.04,523
118.12,523
118.2,464
118.28,489
118.36,511
118.44,433
118.52,424
118.6,500
118.68,568
118.76,481
118.84,461
118.92,436
119,452
119.08,475
119.16,450
119.24,495
119.32,478
119.4,430
119.48,422
119.56,438
119.64,416
119.72,410
119.8,500
119.88,444
119.96,472
120.02,450