File: data/xrd_icdd_PDF/00-067-0215 (PD3).csv
10,11400
10.07892,11564
10.15783,11489
10.23675,11512
10.31567,11473
10.39458,11713
10.4735,11544
10.55241,11551
10.63133,11537
10.71025,11521
10.78916,11769
10.86808,11750
10.947,11701
11.02591,11776
11.10483,11871
11.18375,11886
11.26266,11603
11.34158,11712
11.4205,11843
11.49941,11719
11.57833,11817
11.65724,11591
11.73616,11781
11.81508,11536
11.89399,11721
11.97291,11486
12.05183,11500
12.13074,11514
12.20966,11550
12.28858,11517
12.36749,11375
12.44641,11426
12.52532,11466
12.60424,11141
12.68316,11163
12.76207,10968
12.84099,10957
12.91991,10848
12.99882,10661
13.07774,10828
13.15666,10534
13.23557,10404
13.31449,10422
13.39341,10353
13.47232,10359
13.55124,10232
13.63015,9840
13.70907,9793
13.78799,9935
13.8669,9671
13.94582,9498
14.02474,9552
14.10365,9335
14.18257,9096
14.26149,8995
14.3404,8855
14.41932,8720
14.49823,8763
14.57715,8584
14.65607,8561
14.73498,8280
14.8139,8089
14.89282,8053
14.97173,7950
15.05065,7816
15.12957,7726
15.20848,7589
15.2874,7604
15.36632,7269
15.44523,7162
15.52415,7284
15.60306,7273
15.68198,6989
15.7609,6927
15.83981,6865
15.91873,6625
15.99765,6724
16.07656,6686
16.15548,6405
16.2344,6891
16.31331,9029
16.39223,27145
16.47114,44770
16.55006,7964
16.62898,6627
16.70789,6392
16.78681,6242
16.86573,5830
16.94464,5902
17.02356,5763
17.10248,5648
17.18139,5630
17.26031,5493
17.33923,5532
17.41814,5499
17.49706,5593
17.57597,6782
17.65489,15340
17.73381,43841
17.81272,9485
17.89164,5989
17.97056,5637
18.04947,5447
18.12839,5464
18.20731,5654
18.28622,5865
18.36514,7038
18.44405,15726
18.52297,52714
18.60189,13455
18.6808,6653
18.75972,5408
18.83864,5090
18.91755,4954
18.99647,4735
19.07539,4620
19.1543,4430
19.23322,4462
19.31214,4391
19.39105,4351
19.46997,4245
19.54888,4150
19.6278,4100
19.70672,4194
19.78563,4201
19.86455,4050
19.94347,4140
20.02238,4134
20.1013,4048
20.18022,4020
20.25913,4179
20.33805,4259
20.41696,4484
20.49588,6822
20.5748,24265
20.65371,34328
20.73263,7014
20.81155,4516
20.89046,4064
20.96938,3893
21.0483,3705
21.12721,3687
21.20613,3619
21.28505,3556
21.36396,3474
21.44288,3433
21.52179,3331
21.60071,3292
21.67963,3419
21.75854,3287
21.83746,3185
21.91638,3346
21.99529,3187
22.07421,3099
22.15313,3153
22.23204,3065
22.31096,3128
22.38987,3104
22.46879,3050
22.54771,3033
22.62662,3174
22.70554,3047
22.78446,3026
22.86337,3087
22.94229,2885
23.02121,2895
23.10012,2871
23.17904,2990
23.25796,2846
23.33687,2795
23.41579,2823
23.4947,2881
23.57362,3006
23.65254,2962
23.73145,2923
23.81037,2908
23.88929,2920
23.9682,3119
24.04712,3402
24.12604,4248
24.20495,9459
24.28387,24290
24.36278,7956
24.4417,4020
24.52062,3082
24.59953,2896
24.67845,2704
24.75737,2664
24.83628,2611
24.9152,2515
24.99412,2520
25.07303,2479
25.15195,2411
25.23087,2366
25.30978,2329
25.3887,2366
25.46761,2268
25.54653,2235
25.62545,2310
25.70436,2272
25.78328,2198
25.8622,2235
25.94111,2277
26.02003,2243
26.09895,2192
26.17786,2120
26.25678,2254
26.33569,2161
26.41461,2081
26.49353,2106
26.57244,2115
26.65136,2036
26.73028,2031
26.80919,1985
26.88811,2004
26.96703,2001
27.04594,1985
27.12486,1891
27.20378,2046
27.28269,1947
27.36161,1910
27.44052,1978
27.51944,1970
27.59836,2111
27.67727,1965
27.75619,1899
27.83511,1901
27.91402,1941
27.99294,1910
28.07186,1837
28.15077,1921
28.22969,1961
28.3086,2124
28.38752,2708
28.46644,8384
28.54535,14175
28.62427,4413
28.70319,2368
28.7821,2066
28.86102,1777
28.93994,1836
29.01885,1770
29.09777,1660
29.17669,1638
29.2556,1695
29.33452,1600
29.41343,1568
29.49235,1682
29.57127,1572
29.65018,1653
29.7291,1681
29.80802,1697
29.88693,1682
29.96585,1789
30.04477,2080
30.12368,2494
30.2026,1688
30.28151,1628
30.36043,1586
30.43935,1489
30.51826,1550
30.59718,1545
30.6761,1537
30.75501,1490
30.83393,1589
30.91285,2082
30.99176,3828
31.07068,6755
31.1496,3380
31.22851,2194
31.30743,2710
31.38634,7457
31.46526,11488
31.54418,3488
31.62309,1846
31.70201,1610
31.78093,1504
31.85984,1587
31.93876,1397
32.01768,1479
32.09659,1434
32.17551,1430
32.25442,1513
32.33334,1527
32.41226,1577
32.49117,1910
32.57009,3369
32.64901,8616
32.72792,19782
32.80684,25715
32.88576,7395
32.96467,2831
33.04359,2222
33.12251,2441
33.20142,6817
33.28034,9160
33.35925,2322
33.43817,1430
33.51709,1283
33.596,1260
33.67492,1209
33.75384,1191
33.83275,1182
33.91167,1180
33.99059,1168
34.0695,1137
34.14842,1342
34.22733,1476
34.30625,1294
34.38517,1273
34.46408,1385
34.543,1345
34.62192,1256
34.70083,1119
34.77975,1125
34.85867,1099
34.93758,1081
35.0165,1167
35.09542,1189
35.17433,1420
35.25325,1385
35.33216,1209
35.41108,1086
35.49,1089
35.56891,1111
35.64783,1163
35.72675,1381
35.80566,1963
35.88458,6092
35.9635,7738
36.04241,4807
36.12133,1857
36.20024,1304
36.27916,1136
36.35808,1064
36.43699,1052
36.51591,1019
36.59483,1014
36.67374,1032
36.75266,1022
36.83158,979
36.91049,1049
36.98941,1016
37.06833,1015
37.14724,1006
37.22616,1059
37.30507,1114
37.38399,1341
37.46291,2716
37.54182,8579
37.62074,9222
37.69966,14024
37.77857,10486
37.85749,5904
37.93641,7427
38.01532,3581
38.09424,2209
38.17315,2121
38.25207,3785
38.33099,13952
38.4099,34220
38.48882,12835
38.56774,3668
38.64665,1639
38.72557,1117
38.80449,970
38.8834,877
38.96232,933
39.04124,906
39.12015,844
39.19907,851
39.27798,925
39.3569,923
39.43582,890
39.51473,1053
39.59365,1358
39.67257,3098
39.75148,5158
39.8304,2355
39.90932,1494
39.98823,1137
40.06715,918
40.14606,855
40.22498,807
40.3039,797
40.38281,764
40.46173,776
40.54065,707
40.61956,759
40.69848,732
40.7774,713
40.85631,796
40.93523,760
41.01415,864
41.09306,983
41.17198,965
41.25089,876
41.32981,861
41.40873,1017
41.48764,1290
41.56656,1522
41.64548,2885
41.72439,4355
41.80331,2160
41.88223,2855
41.96114,4785
42.04006,3724
42.11897,2637
42.19789,1311
42.27681,932
42.35572,808
42.43464,755
42.51356,719
42.59247,697
42.67139,684
42.75031,702
42.82922,715
42.90814,683
42.98706,665
43.06597,696
43.14489,818
43.2238,1236
43.30272,2968
43.38164,3001
43.46055,1535
43.53947,899
43.61839,750
43.6973,704
43.77622,644
43.85514,586
43.93405,624
44.01297,624
44.09188,647
44.1708,631
44.24972,596
44.32863,625
44.40755,621
44.48647,650
44.56538,641
44.6443,619
44.72322,589
44.80213,567
44.88105,566
44.95997,567
45.03888,551
45.1178,533
45.19671,584
45.27563,586
45.35455,499
45.43346,545
45.51238,552
45.5913,559
45.67021,642
45.74913,698
45.82805,750
45.90696,1634
45.98588,4021
46.06479,2776
46.14371,1352
46.22263,862
46.30154,689
46.38046,738
46.45938,807
46.53829,901
46.61721,648
46.69613,571
46.77504,545
46.85396,536
46.93288,547
47.01179,585
47.09071,559
47.16962,523
47.24854,553
47.32746,566
47.40637,606
47.48529,980
47.56421,1664
47.64312,2885
47.72204,1820
47.80096,1060
47.87987,877
47.95879,932
48.0377,1101
48.11662,2001
48.19554,3901
48.27445,4007
48.35337,2556
48.43229,3644
48.5112,2887
48.59012,1345
48.66904,880
48.74795,705
48.82687,637
48.90579,614
48.9847,639
49.06362,666
49.14253,691
49.22145,890
49.30037,1518
49.37928,4421
49.4582,5330
49.53712,2477
49.61603,1915
49.69495,3441
49.77387,3850
49.85278,2440
49.9317,2364
50.01061,1683
50.08953,1082
50.16845,970
50.24736,1150
50.32628,1703
50.4052,2587
50.48411,2901
50.56303,1702
50.64195,1626
50.72086,2878
50.79978,4440
50.8787,2742
50.95761,1785
51.03653,2181
51.11544,1281
51.19436,830
51.27328,616
51.35219,520
51.43111,559
51.51003,522
51.58894,512
51.66786,481
51.74678,460
51.82569,523
51.90461,521
51.98352,512
52.06244,483
52.14136,455
52.22027,432
52.29919,497
52.37811,473
52.45702,519
52.53594,536
52.61486,499
52.69377,556
52.77269,584
52.85161,591
52.93052,937
53.00944,1626
53.08835,2043
53.16727,1234
53.24619,1230
53.3251,1977
53.40402,2720
53.48294,2533
53.56185,3141
53.64077,2522
53.71969,1290
53.7986,784
53.87752,666
53.95643,671
54.03535,686
54.11427,811
54.19318,1361
54.2721,2010
54.35102,1351
54.42993,1228
54.50885,2223
54.58777,5476
54.66668,7683
54.7456,3309
54.82452,1760
54.90343,1582
54.98235,2543
55.06126,6537
55.14018,7455
55.2191,8457
55.29801,3761
55.37693,1475
55.45585,843
55.53476,791
55.61368,877
55.6926,1561
55.77151,3970
55.85043,2964
55.92934,1527
56.00826,1034
56.08718,1134
56.16609,1936
56.24501,1415
56.32393,1067
56.40284,1296
56.48176,2159
56.56068,1610
56.63959,943
56.71851,663
56.79743,612
56.87634,581
56.95526,662
57.03417,866
57.11309,1311
57.19201,1908
57.27092,1457
57.34984,842
57.42876,709
57.50767,668
57.58659,799
57.66551,1500
57.74442,2450
57.82334,2110
57.90225,2352
57.98117,1383
58.06009,833
58.139,592
58.21792,501
58.29684,505
58.37575,539
58.45467,589
58.53359,693
58.6125,931
58.69142,1154
58.77034,1597
58.84925,1819
58.92817,1384
59.00708,1951
59.086,1457
59.16492,963
59.24383,676
59.32275,541
59.40167,488
59.48058,423
59.5595,427
59.63842,486
59.71733,611
59.79625,1082
59.87516,1642
59.95408,1082
60.033,769
60.11191,554
60.19083,590
60.26975,717
60.34866,1302
60.42758,1507
60.5065,892
60.58541,666
60.66433,466
60.74325,400
60.82216,427
60.90108,411
60.97999,389
61.05891,353
61.13783,388
61.21674,381
61.29566,422
61.37458,380
61.45349,380
61.53241,354
61.61133,388
61.69024,378
61.76916,410
61.84807,429
61.92699,436
62.00591,451
62.08482,421
62.16374,435
62.24266,415
62.32157,433
62.40049,424
62.47941,428
62.55832,495
62.63724,504
62.71616,501
62.79507,537
62.87399,712
62.9529,995
63.03182,1257
63.11074,940
63.18965,633
63.26857,502
63.34749,456
63.4264,478
63.50532,559
63.58424,722
63.66315,1095
63.74207,1927
63.82098,1876
63.8999,1137
63.97882,798
64.05773,718
64.13665,724
64.21557,959
64.29448,782
64.3734,630
64.45232,782
64.53123,1202
64.61015,1769
64.68907,1437
64.76798,1592
64.8469,1652
64.92581,1831
65.00473,2094
65.08365,1418
65.16256,862
65.24148,715
65.3204,713
65.39931,948
65.47823,1440
65.55715,2451
65.63606,2836
65.71498,2138
65.79389,2293
65.87281,3592
65.95173,3922
66.03064,2587
66.10956,1457
66.18848,956
66.26739,803
66.34631,994
66.42523,1644
66.50414,1880
66.58306,1166
66.66198,788
66.74089,591
66.81981,493
66.89872,536
66.97764,710
67.05656,1240
67.13547,2000
67.21439,1989
67.29331,1345
67.37222,952
67.45114,913
67.53006,1172
67.60897,1735
67.68789,1854
67.7668,1979
67.84572,1416
67.92464,919
68.00355,817
68.08247,1028
68.16139,1174
68.2403,1054
68.31922,972
68.39814,1311
68.47705,1990
68.55597,3043
68.63489,3384
68.7138,4328
68.79272,2933
68.87163,1786
68.95055,990
69.02947,720
69.10838,636
69.1873,626
69.26622,718
69.34513,1005
69.42405,1337
69.50297,899
69.58188,699
69.6608,861
69.73971,1386
69.81863,2250
69.89755,1729
69.97646,1041
70.05538,666
70.1343,587
70.21321,506
70.29213,508
70.37105,568
70.44996,470
70.52888,409
70.6078,382
70.68671,355
70.76563,376
70.84454,368
70.92346,361
71.00238,365
71.08129,390
71.16021,364
71.23913,459
71.31804,532
71.39696,666
71.47588,899
71.55479,1162
71.63371,1658
71.71262,2114
71.79154,1931
71.87046,1330
71.94937,1108
72.02829,1142
72.10721,876
72.18612,661
72.26504,518
72.34396,535
72.42287,655
72.50179,921
72.58071,934
72.65962,1078
72.73854,949
72.81745,847
72.89637,1050
72.97529,1082
73.0542,853
73.13312,755
73.21204,721
73.29095,655
73.36987,512
73.44879,417
73.5277,361
73.60662,316
73.68553,355
73.76445,326
73.84337,332
73.92228,319
74.0012,367
74.08012,450
74.15903,525
74.23795,676
74.31687,583
74.39578,447
74.4747,366
74.55362,333
74.63253,329
74.71145,329
74.79036,309
74.86928,324
74.9482,309
75.02711,327
75.10603,352
75.18495,402
75.26386,541
75.34278,724
75.4217,676
75.50061,561
75.57953,517
75.65844,539
75.73736,716
75.81628,1018
75.89519,868
75.97411,730
76.05303,846
76.13194,1015
76.21086,946
76.28978,1022
76.36869,1116
76.44761,958
76.52653,848
76.60544,725
76.68436,564
76.76327,516
76.84219,535
76.92111,733
77.00002,916
77.07894,1087
77.15786,891
77.23677,801
77.31569,703
77.39461,866
77.47352,1128
77.55244,1161
77.63135,893
77.71027,634
77.78919,521
77.8681,656
77.94702,723
78.02594,757
78.10485,911
78.18377,938
78.26269,858
78.3416,720
78.42052,836
78.49944,1104
78.57835,1041
78.65727,732
78.73618,558
78.8151,411
78.89402,349
78.97293,348
79.05185,320
79.13077,346
79.20968,340
79.2886,340
79.36752,359
79.44643,370
79.52535,408
79.60426,549
79.68318,703
79.7621,659
79.84101,516
79.91993,463
79.99885,517
80.07776,647
80.15668,725
80.2356,645
80.31451,576
80.39343,576
80.47235,618
80.55126,733
80.63018,736
80.70909,657
80.78801,694
80.86693,884
80.94584,953
81.02476,885
81.10368,872
81.18259,690
81.26151,495
81.34043,481
81.41934,453
81.49826,456
81.57717,494
81.65609,506
81.73501,412
81.81392,404
81.89284,343
81.97176,416
82.05067,537
82.12959,748
82.20851,1198
82.28742,1360
82.36634,958
82.44526,707
82.52417,551
82.60309,452
82.682,453
82.76092,469
82.83984,536
82.91875,738
82.99767,722
83.07659,577
83.1555,515
83.23442,569
83.31334,523
83.39225,536
83.47117,597
83.55008,647
83.629,638
83.70792,582
83.78683,562
83.86575,514
83.94467,609
84.02358,745
84.1025,802
84.18142,619
84.26033,499
84.33925,644
84.41817,839
84.49708,1025
84.576,858
84.65491,787
84.73383,761
84.81275,632
84.89166,455
84.97058,448
85.0495,481
85.12841,518
85.20733,582
85.28625,574
85.36516,582
85.44408,588
85.52299,557
85.60191,573
85.68083,530
85.75974,483
85.83866,499
85.91758,506
85.99649,627
86.07541,878
86.15433,947
86.23324,840
86.31216,554
86.39108,469
86.46999,457
86.54891,521
86.62782,601
86.70674,585
86.78566,640
86.86457,624
86.94349,559
87.02241,475
87.10132,474
87.18024,469
87.25916,362
87.33807,343
87.41699,336
87.4959,314
87.57482,366
87.65374,347
87.73265,411
87.81157,419
87.89049,464
87.9694,531
88.04832,636
88.12724,811
88.20615,931
88.28507,779
88.36399,555
88.4429,404
88.52182,333
88.60073,372
88.67965,385
88.75857,363
88.83748,453
88.9164,547
88.99532,624
89.07423,705
89.15315,567
89.23207,528
89.31098,447
89.3899,533
89.46881,716
89.54773,907
89.62665,885
89.70556,799
89.78448,889
89.8634,926
89.94231,1074
90.02123,1333
90.10015,1728
90.17906,1457
90.25798,1070
90.3369,866
90.41581,757
90.49473,801
90.57364,1034
90.65256,1102
90.73148,1350
90.81039,1555
90.88931,1271
90.96823,981
91.04714,795
91.12606,720
91.20498,679
91.28389,757
91.36281,830
91.44172,847
91.52064,961
91.59956,934
91.67847,755
91.75739,714
91.83631,663
91.91522,542
91.99414,455
92.07306,459
92.15197,467
92.23089,485
92.30981,609
92.38872,730
92.46764,867
92.54655,969
92.62547,889
92.70439,672
92.7833,660
92.86222,625
92.94114,733
93.02005,837
93.09897,711
93.17789,692
93.2568,683
93.33572,776
93.41463,844
93.49355,914
93.57247,838
93.65138,851
93.7303,1053
93.80922,1353
93.88813,1416
93.96705,1444
94.04597,1484
94.12488,1471
94.2038,1236
94.28272,1004
94.36163,955
94.44055,934
94.51946,950
94.59838,989
94.6773,1185
94.75621,1274
94.83513,1052
94.91405,930
94.99296,998
95.07188,1019
95.1508,1257
95.22971,1525
95.30863,1510
95.38754,1174
95.46646,924
95.54538,648
95.62429,598
95.70321,478
95.78213,506
95.86104,490
95.93996,594
96.01888,729
96.09779,808
96.17671,751
96.25563,683
96.33454,579
96.41346,511
96.49237,465
96.57129,492
96.65021,609
96.72912,562
96.80804,509
96.88696,432
96.96587,411
97.04479,401
97.12371,418
97.20262,553
97.28154,644
97.36045,623
97.43937,647
97.51829,554
97.5972,492
97.67612,469
97.75504,498
97.83395,449
97.91287,508
97.99179,462
98.0707,392
98.14962,370
98.22854,316
98.30745,307
98.38637,286
98.46528,281
98.5442,285
98.62312,281
98.70203,291
98.78095,312
98.85987,321
98.93878,300
99.0177,296
99.09662,370
99.17553,379
99.25445,439
99.33336,427
99.41228,456
99.4912,411
99.57011,377
99.64903,351
99.72795,367
99.80686,390
99.88578,456
99.9647,435
100.044,443
100.123,367
100.201,372
100.28,327
100.359,352
100.438,364
100.517,400
100.596,427
100.675,508
100.754,545
100.833,581
100.912,599
100.991,601
101.07,631
101.148,770
101.227,683
101.306,656
101.385,627
101.464,583
101.543,509
101.622,444
101.701,428
101.78,378
101.859,370
101.938,359
102.017,410
102.095,409
102.174,452
102.253,514
102.332,575
102.4111,621
102.49,718
102.569,795
102.648,865
102.727,936
102.806,954
102.8846,916
102.964,762
103.042,669
103.121,626
103.2,591
103.279,589
103.3581,588
103.437,618
103.516,618
103.595,622
103.674,541
103.753,468
103.8316,416
103.911,388
103.989,340
104.068,369
104.147,399
104.226,407
104.3051,388
104.384,478
104.463,518
104.542,527
104.621,547
104.7,532
104.7786,555
104.858,577
104.936,620
105.015,581
105.094,601
105.173,677
105.252,718
105.331,703
105.41,623
105.489,554
105.568,435
105.647,479
105.726,532
105.805,534
105.883,651
105.962,921
106.041,1067
106.12,1085
106.199,1005
106.278,1028
106.357,933
106.436,1052
106.515,1147
106.594,1131
106.673,1088
106.752,1165
106.83,1055
106.909,941
106.988,869
107.067,783
107.146,785
107.225,631
107.304,552
107.383,486
107.462,494
107.541,492
107.62,512
107.6985,526
107.777,589
107.856,682
107.935,651
108.014,729
108.093,778
108.172,923
108.251,1111
108.33,1015
108.409,835
108.488,769
108.567,832
108.6455,787
108.724,749
108.803,816
108.882,882
108.961,807
109.04,830
109.119,742
109.198,763
109.277,765
109.356,761
109.435,707
109.514,712
109.5925,690
109.671,678
109.75,679
109.829,650
109.908,601
109.987,539
110.066,564
110.145,617
110.224,662
110.303,715
110.382,803
110.461,852
110.539,874
110.618,825
110.697,836
110.776,739
110.855,606
110.934,542
111.013,451
111.092,433
111.171,387
111.25,368
111.329,380
111.408,393
111.486,363
111.565,440
111.644,453
111.723,429
111.802,420
111.881,432
111.96,444
112.039,445
112.118,467
112.197,524
112.276,467
112.355,446
112.433,361
112.5124,401
112.591,366
112.67,326
112.749,388
112.828,412
112.907,497
112.9859,500
113.065,453
113.144,521
113.223,548
113.302,637
113.38,764
113.4594,811
113.538,741
113.617,705
113.696,592
113.775,570
113.854,577
113.9329,572
114.012,542
114.091,525
114.17,584
114.249,576
114.327,619
114.4064,704
114.485,686
114.564,662
114.643,655
114.722,612
114.801,547
114.8799,574
114.959,645
115.038,678
115.117,744
115.196,724
115.274,651
115.353,661
115.432,637
115.511,660
115.59,693
115.669,787
115.748,682
115.827,603
115.906,596
115.985,577
116.064,593
116.143,615
116.221,586
116.3,634
116.379,708
116.458,858
116.537,967
116.616,1073
116.695,1133
116.774,1128
116.853,1086
116.932,1056
117.011,1029
117.09,1117
117.168,1169
117.247,1155
117.3263,1163
117.405,1075
117.484,984
117.563,925
117.642,917
117.721,840
117.7998,806
117.879,833
117.958,899
118.037,851
118.115,892
118.194,931
118.2733,1030
118.352,994
118.431,1051
118.51,1129
118.589,1121
118.668,1013
118.7468,1028
118.826,924
118.905,828
118.984,734
119.062,661
119.141,606
119.2203,588
119.299,555
119.378,546
119.457,526
119.536,523
119.615,523
119.6938,483
119.773,502
119.852,553
119.931,504
120.009,592
120.029,618