File: data/xrd_icdd_PDF/00-054-1203 (PD3).csv
3,1322
3.06,1294
3.12,1218
3.18,1306
3.24,1174
3.3,1182
3.36,1203
3.42,1162
3.48,1179
3.54,1148
3.6,1128
3.66,1142
3.72,1120
3.78,1066
3.84,1060
3.9,1065
3.96,1089
4.02,1112
4.08,1045
4.14,1005
4.2,1022
4.26,998
4.32,984
4.38,970
4.44,977
4.5,992
4.56,955
4.62,941
4.68,936
4.74,949
4.8,925
4.86,987
4.92,954
4.98,1001
5.04,1006
5.1,944
5.16,895
5.22,942
5.28,921
5.34,917
5.4,929
5.46,925
5.52,950
5.58,924
5.64,984
5.7,943
5.76,916
5.82,994
5.88,947
5.94,914
6,1060
6.06,1016
6.12,1056
6.18,1017
6.24,1065
6.3,1035
6.36,1104
6.42,1142
6.48,1007
6.54,1005
6.6,1060
6.66,1041
6.72,965
6.78,925
6.84,964
6.9,942
6.96,952
7.02,990
7.08,953
7.14,930
7.2,975
7.26,977
7.32,900
7.38,946
7.44,938
7.5,944
7.56,967
7.62,905
7.68,919
7.74,919
7.8,983
7.86,964
7.92,934
7.98,932
8.04,923
8.1,959
8.16,984
8.22,916
8.28,938
8.34,979
8.4,979
8.46,979
8.52,995
8.58,964
8.64,967
8.7,1070
8.76,966
8.82,1039
8.88,989
8.94,1019
9,1057
9.06,1016
9.12,1002
9.18,1050
9.24,1010
9.3,1092
9.36,1094
9.42,1087
9.48,1081
9.54,1142
9.6,1086
9.66,1131
9.72,1164
9.78,1068
9.84,1210
9.9,1110
9.96,1185
10.02,1133
10.08,1170
10.14,1125
10.2,1105
10.26,1185
10.32,1198
10.38,1204
10.44,1194
10.5,1223
10.56,1192
10.62,1197
10.68,1185
10.74,1227
10.8,1225
10.86,1223
10.92,1291
10.98,1251
11.04,1261
11.1,1306
11.16,1329
11.22,1279
11.28,1288
11.34,1310
11.4,1239
11.46,1333
11.52,1276
11.58,1275
11.64,1278
11.7,1310
11.76,1339
11.82,1349
11.88,1276
11.94,1282
12,1332
12.06,1314
12.12,1386
12.18,1257
12.24,1301
12.3,1333
12.36,1374
12.42,1334
12.48,1386
12.54,1333
12.6,1275
12.66,1373
12.72,1276
12.78,1286
12.84,1309
12.9,1334
12.96,1353
13.02,1362
13.08,1363
13.14,1345
13.2,1314
13.26,1408
13.32,1358
13.38,1366
13.44,1375
13.5,1520
13.56,1521
13.62,1500
13.68,1798
13.74,2051
13.8,2664
13.86,3800
13.92,4267
13.98,3663
14.04,1882
14.1,1595
14.16,1601
14.22,1719
14.28,1753
14.34,2130
14.4,2650
14.46,3964
14.52,4682
14.58,4210
14.64,2148
14.7,1511
14.76,1490
14.82,1432
14.88,1427
14.94,1400
15,1330
15.06,1333
15.12,1465
15.18,1490
15.24,1367
15.3,1495
15.36,1443
15.42,1454
15.48,1424
15.54,1473
15.6,1384
15.66,1469
15.72,1476
15.78,1460
15.84,1459
15.9,1455
15.96,1448
16.02,1439
16.08,1452
16.14,1460
16.2,1477
16.26,1465
16.32,1459
16.38,1456
16.44,1434
16.5,1578
16.56,1575
16.62,1504
16.68,1561
16.74,1589
16.8,1811
16.86,1966
16.92,2390
16.98,3593
17.04,5760
17.1,5896
17.16,3403
17.22,1809
17.28,1629
17.34,1476
17.4,1451
17.46,1441
17.52,1475
17.58,1411
17.64,1377
17.7,1436
17.76,1360
17.82,1464
17.88,1388
17.94,1337
18,1405
18.06,1444
18.12,1372
18.18,1418
18.24,1331
18.3,1395
18.36,1428
18.42,1372
18.48,1393
18.54,1431
18.6,1397
18.66,1345
18.72,1382
18.78,1407
18.84,1376
18.9,1400
18.96,1327
19.02,1374
19.08,1459
19.14,1335
19.2,1370
19.26,1375
19.32,1361
19.38,1376
19.44,1391
19.5,1351
19.56,1401
19.62,1400
19.68,1397
19.74,1331
19.8,1379
19.86,1351
19.92,1410
19.98,1425
20.04,1332
20.1,1378
20.16,1344
20.22,1435
20.28,1327
20.34,1364
20.4,1367
20.46,1347
20.52,1437
20.58,1386
20.64,1349
20.7,1463
20.76,1377
20.82,1333
20.88,1315
20.94,1337
21,1368
21.06,1378
21.12,1349
21.18,1345
21.24,1375
21.3,1459
21.36,1398
21.42,1402
21.48,1371
21.54,1420
21.6,1367
21.66,1391
21.72,1451
21.78,1447
21.84,1383
21.9,1490
21.96,1878
22.02,2244
22.08,2384
22.14,1741
22.2,1464
22.26,1446
22.32,1363
22.38,1351
22.44,1371
22.5,1410
22.56,1407
22.62,1443
22.68,1348
22.74,1395
22.8,1423
22.86,1395
22.92,1405
22.98,1429
23.04,1385
23.1,1464
23.16,1473
23.22,1431
23.28,1389
23.34,1434
23.4,1466
23.46,1753
23.52,2192
23.58,2873
23.64,2489
23.7,1727
23.76,1420
23.82,1502
23.88,1498
23.94,1484
24,1402
24.06,1358
24.12,1378
24.18,1337
24.24,1394
24.3,1362
24.36,1389
24.42,1432
24.48,1309
24.54,1356
24.6,1324
24.66,1351
24.72,1390
24.78,1364
24.84,1345
24.9,1335
24.96,1328
25.02,1397
25.08,1377
25.14,1463
25.2,1485
25.26,1484
25.32,1410
25.38,1402
25.44,1465
25.5,1448
25.56,1590
25.62,1780
25.68,2350
25.74,2365
25.8,1849
25.86,1464
25.92,1385
25.98,1403
26.04,1374
26.1,1363
26.16,1361
26.22,1420
26.28,1408
26.34,1460
26.4,1516
26.46,1476
26.52,1441
26.58,1442
26.64,1455
26.7,1531
26.76,1436
26.82,1380
26.88,1417
26.94,1437
27,1403
27.06,1535
27.12,1555
27.18,1971
27.24,2402
27.3,2064
27.36,1716
27.42,1618
27.48,1620
27.54,1668
27.6,1746
27.66,1888
27.72,2008
27.78,2398
27.84,3480
27.9,6717
27.96,14264
28.02,17870
28.08,11442
28.14,7835
28.2,9027
28.26,6550
28.32,4404
28.38,2838
28.44,2269
28.5,1768
28.56,1650
28.62,1637
28.68,1599
28.74,1626
28.8,1730
28.86,1724
28.92,1860
28.98,2006
29.04,2442
29.1,3779
29.16,7399
29.22,14384
29.28,12974
29.34,7224
29.4,2906
29.46,2108
29.52,1792
29.58,1639
29.64,1601
29.7,1531
29.76,1538
29.82,1579
29.88,1437
29.94,1436
30,1484
30.06,1453
30.12,1470
30.18,1467
30.24,1549
30.3,1430
30.36,1429
30.42,1486
30.48,1490
30.54,1455
30.6,1503
30.66,1466
30.72,1530
30.78,1537
30.84,1548
30.9,1678
30.96,1798
31.02,2331
31.08,3299
31.14,5949
31.2,7972
31.26,5501
31.32,3030
31.38,1957
31.44,1748
31.5,1626
31.56,1523
31.62,1473
31.68,1502
31.74,1448
31.8,1471
31.86,1529
31.92,1489
31.98,1417
32.04,1453
32.1,1388
32.16,1441
32.22,1412
32.28,1506
32.34,1488
32.4,1437
32.46,1466
32.52,1449
32.58,1368
32.64,1466
32.7,1356
32.76,1435
32.82,1499
32.88,1452
32.94,1438
33,1381
33.06,1417
33.12,1474
33.18,1496
33.24,1410
33.3,1490
33.36,1466
33.42,1506
33.48,1522
33.54,1534
33.6,1779
33.66,2290
33.72,2920
33.78,2639
33.84,2175
33.9,1606
33.96,1562
34.02,1544
34.08,1499
34.14,1596
34.2,1731
34.26,1928
34.32,2530
34.38,4830
34.44,8842
34.5,7412
34.56,5026
34.62,2557
34.68,1739
34.74,1531
34.8,1568
34.86,1489
34.92,1451
34.98,1496
35.04,1417
35.1,1418
35.16,1458
35.22,1420
35.28,1421
35.34,1403
35.4,1456
35.46,1419
35.52,1530
35.58,1638
35.64,1814
35.7,2363
35.76,2709
35.82,2232
35.88,1780
35.94,1579
36,1475
36.06,1389
36.12,1441
36.18,1506
36.24,1576
36.3,1954
36.36,2076
36.42,1788
36.48,1581
36.54,1483
36.6,1452
36.66,1602
36.72,1917
36.78,1669
36.84,1624
36.9,1432
36.96,1404
37.02,1389
37.08,1431
37.14,1381
37.2,1412
37.26,1406
37.32,1490
37.38,1561
37.44,1912
37.5,2072
37.56,1865
37.62,1609
37.68,1511
37.74,1474
37.8,1380
37.86,1372
37.92,1499
37.98,1570
38.04,1649
38.1,1576
38.16,1536
38.22,1395
38.28,1358
38.34,1368
38.4,1400
38.46,1461
38.52,1524
38.58,1406
38.64,1396
38.7,1426
38.76,1419
38.82,1501
38.88,1344
38.94,1382
39,1329
39.06,1358
39.12,1400
39.18,1363
39.24,1396
39.3,1338
39.36,1400
39.42,1417
39.48,1378
39.54,1403
39.6,1396
39.66,1399
39.72,1386
39.78,1343
39.84,1407
39.9,1439
39.96,1330
40.02,1357
40.08,1355
40.14,1399
40.2,1465
40.26,1504
40.32,1621
40.38,1600
40.44,1577
40.5,1528
40.56,1446
40.62,1500
40.68,1420
40.74,1382
40.8,1426
40.86,1390
40.92,1408
40.98,1480
41.04,1393
41.1,1352
41.16,1496
41.22,1700
41.28,1979
41.34,1734
41.4,1748
41.46,1542
41.52,1527
41.58,1395
41.64,1451
41.7,1830
41.76,1714
41.82,1625
41.88,1515
41.94,1493
42,1427
42.06,1492
42.12,1871
42.18,2059
42.24,1824
42.3,1816
42.36,1580
42.42,1793
42.48,2698
42.54,2748
42.6,2274
42.66,1925
42.72,1549
42.78,1465
42.84,1395
42.9,1451
42.96,1480
43.02,1365
43.08,1427
43.14,1438
43.2,1496
43.26,1430
43.32,1503
43.38,1457
43.44,1526
43.5,1737
43.56,2166
43.62,3389
43.68,2761
43.74,2647
43.8,1980
43.86,1581
43.92,1439
43.98,1442
44.04,1434
44.1,1489
44.16,1466
44.22,1434
44.28,1457
44.34,1531
44.4,1845
44.46,2331
44.52,2036
44.58,1913
44.64,1718
44.7,1976
44.76,1679
44.82,1933
44.88,2283
44.94,2099
45,1834
45.06,1715
45.12,1501
45.18,1478
45.24,1455
45.3,1523
45.36,1490
45.42,1462
45.48,1437
45.54,1428
45.6,1443
45.66,1399
45.72,1351
45.78,1412
45.84,1401
45.9,1421
45.96,1408
46.02,1461
46.08,1374
46.14,1459
46.2,1462
46.26,1461
46.32,1432
46.38,1449
46.44,1581
46.5,1801
46.56,1492
46.62,1586
46.68,1474
46.74,1495
46.8,1503
46.86,1589
46.92,1669
46.98,1780
47.04,2343
47.1,4344
47.16,5559
47.22,3585
47.28,3761
47.34,2179
47.4,1771
47.46,1632
47.52,1554
47.58,1607
47.64,1713
47.7,1846
47.76,2812
47.82,3342
47.88,2416
47.94,2469
48,1896
48.06,1844
48.12,2118
48.18,2779
48.24,2214
48.3,2430
48.36,2337
48.42,1769
48.48,1821
48.54,1625
48.6,1526
48.66,1538
48.72,1625
48.78,1797
48.84,1774
48.9,2008
48.96,2731
49.02,2267
49.08,2093
49.14,2021
49.2,1649
49.26,1588
49.32,1665
49.38,1658
49.44,1829
49.5,2357
49.56,1909
49.62,1959
49.68,1773
49.74,1563
49.8,1559
49.86,1491
49.92,1464
49.98,1519
50.04,1500
50.1,1548
50.16,1588
50.22,1621
50.28,1719
50.34,2005
50.4,2293
50.46,3631
50.52,3892
50.58,2788
50.64,2968
50.7,1984
50.76,1665
50.82,1661
50.88,1701
50.94,1587
51,1652
51.06,1673
51.12,1777
51.18,2118
51.24,3418
51.3,2992
51.36,2466
51.42,2558
51.48,1981
51.54,1763
51.6,1777
51.66,1905
51.72,2161
51.78,3646
51.84,3417
51.9,2657
51.96,2821
52.02,1895
52.08,1575
52.14,1580
52.2,1576
52.26,1505
52.32,1569
52.38,1562
52.44,1523
52.5,1590
52.56,1649
52.62,1685
52.68,2137
52.74,3516
52.8,3119
52.86,2567
52.92,2762
52.98,2100
53.04,2293
53.1,1964
53.16,1856
53.22,1727
53.28,1547
53.34,1609
53.4,1526
53.46,1508
53.52,1469
53.58,1482
53.64,1460
53.7,1454
53.76,1419
53.82,1467
53.88,1496
53.94,1485
54,1512
54.06,1460
54.12,1462
54.18,1473
54.24,1492
54.3,1523
54.36,1445
54.42,1575
54.48,1520
54.54,1500
54.6,1478
54.66,1610
54.72,1764
54.78,1813
54.84,1999
54.9,2809
54.96,4975
55.02,3395
55.08,3057
55.14,3264
55.2,2220
55.26,1956
55.32,1886
55.38,1877
55.44,1626
55.5,1640
55.56,1640
55.62,1713
55.68,1792
55.74,2315
55.8,3575
55.86,2652
55.92,2329
55.98,2656
56.04,1797
56.1,1640
56.16,1615
56.22,1537
56.28,1485
56.34,1508
56.4,1464
56.46,1427
56.52,1495
56.58,1468
56.64,1462
56.7,1438
56.76,1576
56.82,1504
56.88,1613
56.94,1554
57,1609
57.06,1647
57.12,1618
57.18,1589
57.24,1613
57.3,1714
57.36,2186
57.42,3202
57.48,2767
57.54,2246
57.6,2761
57.66,2223
57.72,3075
57.78,3667
57.84,3367
57.9,2900
57.96,2642
58.02,2204
58.08,1714
58.14,1709
58.2,1663
58.26,1663
58.32,1622
58.38,1747
58.44,1923
58.5,2695
58.56,2719
58.62,1963
58.68,2217
58.74,1889
58.8,1655
58.86,1518
58.92,1504
58.98,1512
59.04,1485
59.1,1441
59.16,1503
59.22,1497
59.28,1473
59.34,1403
59.4,1408
59.46,1414
59.52,1483
59.58,1472
59.64,1485
59.7,1507
59.76,1455
59.82,1443
59.88,1511
59.94,1445
60,1531
60.06,1538
60.12,1434
60.18,1522
60.24,1736
60.3,1562
60.36,1559
60.42,1667
60.48,1762
60.54,2368
60.6,2085
60.66,1827
60.72,1977
60.78,1683
60.84,1591
60.9,1535
60.96,1545
61.02,1586
61.08,1567
61.14,1607
61.2,1750
61.26,2069
61.32,2582
61.38,1942
61.44,1841
61.5,2022
61.56,1618
61.62,1624
61.68,1628
61.74,1668
61.8,1548
61.86,1588
61.92,1539
61.98,1560
62.04,1625
62.1,1623
62.16,1512
62.22,1636
62.28,1578
62.34,1623
62.4,1636
62.46,1885
62.52,2427
62.58,2336
62.64,2028
62.7,2349
62.76,2284
62.82,2631
62.88,2388
62.94,1896
63,2088
63.06,1873
63.12,1737
63.18,1592
63.24,1594
63.3,1578
63.36,1768
63.42,1970
63.48,2691
63.54,3174
63.6,2562
63.66,2515
63.72,2784
63.78,2245
63.84,1835
63.9,1868
63.96,1726
64.02,1605
64.08,1610
64.14,1569
64.2,1598
64.26,1572
64.32,1532
64.38,1487
64.44,1480
64.5,1485
64.56,1576
64.62,1533
64.68,1602
64.74,1943
64.8,2153
64.86,1966
64.92,2381
64.98,2689
65.04,2101
65.1,2505
65.16,2492
65.22,1936
65.28,1932
65.34,1883
65.4,1664
65.46,1593
65.52,1503
65.58,1464
65.64,1516
65.7,1537
65.76,1457
65.82,1503
65.88,1516
65.94,1509
66,1471
66.06,1520
66.12,1408
66.18,1542
66.24,1458
66.3,1468
66.36,1454
66.42,1474
66.48,1525
66.54,1446
66.6,1460
66.66,1541
66.72,1681
66.78,1526
66.84,1689
66.9,1921
66.96,1703
67.02,1682
67.08,1747
67.14,1717
67.2,2133
67.26,2454
67.32,1774
67.38,1753
67.44,2013
67.5,1739
67.56,1609
67.62,1549
67.68,1693
67.74,1620
67.8,1501
67.86,1596
67.92,1651
67.98,1597
68.04,1485
68.1,1518
68.16,1523
68.22,1537
68.28,1582
68.34,1916
68.4,1848
68.46,1892
68.52,1855
68.58,1812
68.64,1849
68.7,2033
68.76,1793
68.82,1598
68.88,1687
68.94,1673
69,1533
69.06,1461
69.12,1566
69.18,1610
69.24,1503
69.3,1566
69.36,1522
69.42,1547
69.48,1514
69.54,1508
69.6,1465
69.66,1491
69.72,1505
69.78,1518
69.84,1683
69.9,1594
69.96,1647
70.02,1511
70.08,1698
70.14,1520
70.2,1491
70.26,1534
70.32,1432
70.38,1439
70.44,1509
70.5,1635
70.56,1631
70.62,1520
70.68,1490
70.74,1632
70.8,1515
70.86,1578
70.92,1428
70.98,1495
71.04,1440
71.1,1435
71.16,1422
71.22,1410
71.28,1413
71.34,1481
71.4,1492
71.46,1464
71.52,1517
71.58,1481
71.64,1486
71.7,1446
71.76,1516
71.82,1421
71.88,1459
71.94,1449
72,1530
72.06,1437
72.12,1443
72.18,1448
72.24,1385
72.3,1452
72.36,1539
72.42,1512
72.48,1578
72.54,1640
72.6,1903
72.66,1805
72.72,1685
72.78,1613
72.84,1830
72.9,1609
72.96,1563
73.02,1567
73.08,1511
73.14,1523
73.2,1469
73.26,1476
73.32,1564
73.38,1591
73.44,1990
73.5,2086
73.56,1814
73.62,1733
73.68,1928
73.74,1753
73.8,1632
73.86,1471
73.92,1594
73.98,1568
74.04,1537
74.1,1541
74.16,1610
74.22,1551
74.28,1691
74.34,1533
74.4,1596
74.46,1522
74.52,1569
74.58,1601
74.64,1680
74.7,1527
74.76,1625
74.82,1661
74.88,1740
74.94,1765
75,1590
75.06,1603
75.12,1703
75.18,1671
75.24,2007
75.3,1831
75.36,1804
75.42,1817
75.48,1869
75.54,1893
75.6,2107
75.66,2192
75.72,1718
75.78,1818
75.84,1955
75.9,1863
75.96,1766
76.02,1667
76.08,1734
76.14,1987
76.2,1668
76.26,1711
76.32,1733
76.38,1755
76.44,1863
76.5,1960
76.56,1704
76.62,1559
76.68,1715
76.74,1723
76.8,1651
76.86,1685
76.92,1699
76.98,1814
77.04,1846
77.1,1997
77.16,1814
77.22,1795
77.28,1902
77.34,1865
77.4,2043
77.46,2370
77.52,2131
77.58,2061
77.64,2427
77.7,2211
77.76,2006
77.82,1853
77.88,1846
77.94,1760
78,1779
78.06,1800
78.12,1676
78.18,1874
78.24,2029
78.3,1738
78.36,1692
78.42,1844
78.48,2067
78.54,2390
78.6,2430
78.66,1880
78.72,1900
78.78,2277
78.84,2451
78.9,1917
78.96,1754
79.02,1755
79.08,1828
79.14,1740
79.2,1631
79.26,1597
79.32,1615
79.38,1641
79.44,1743
79.5,2088
79.56,2046
79.62,1754
79.68,1661
79.74,1802
79.8,1867
79.86,1633
79.92,1653
79.98,1694
80.04,1887
80.1,1775
80.16,1683
80.22,1748
80.28,1968
80.34,1764
80.4,1655
80.46,1696
80.52,1775
80.58,1707
80.64,1633
80.7,1616
80.76,1684
80.82,1691
80.88,1950
80.94,1941
81,1726
81.06,1933
81.12,2180
81.18,2115
81.24,2277
81.3,1952
81.36,1896
81.42,1782
81.48,1858
81.54,1705
81.6,1639
81.66,1632
81.72,1636
81.78,1540
81.84,1683
81.9,1635
81.96,1553
82.02,1631
82.08,1566
82.14,1570
82.2,1516
82.26,1608
82.32,1515
82.38,1497
82.44,1580
82.5,1708
82.56,1740
82.62,1595
82.68,1599
82.74,1587
82.8,1630
82.86,1634
82.92,1672
82.98,1596
83.04,1611
83.1,1540
83.16,1616
83.22,1707
83.28,1741
83.34,1776
83.4,1607
83.46,1588
83.52,1620
83.58,1726
83.64,1532
83.7,1551
83.76,1559
83.82,1599
83.88,1520
83.94,1578
84,1629
84.06,1675
84.12,1762
84.18,1931
84.24,2274
84.3,2278
84.36,2033
84.42,2102
84.48,2115
84.54,1978
84.6,1945
84.66,1795
84.72,1719
84.78,1619
84.84,1567
84.9,1541
84.96,1580
85.02,1482
85.08,1547
85.14,1503
85.2,1615
85.26,1565
85.32,1514
85.38,1518
85.44,1502
85.5,1611
85.56,1576
85.62,1557
85.68,1550
85.74,1487
85.8,1460
85.86,1519
85.92,1542
85.98,1551
86.04,1519
86.1,1540
86.16,1486
86.22,1489
86.28,1517
86.34,1546
86.4,1577
86.46,1532
86.52,1454
86.58,1503
86.64,1592
86.7,1541
86.76,1617
86.82,1858
86.88,1785
86.94,1670
87,1659
87.06,1656
87.12,1812
87.18,1695
87.24,1574
87.3,1599
87.36,1607
87.42,1590
87.48,1651
87.54,1560
87.6,1693
87.66,1641
87.72,1902
87.78,2068
87.84,1709
87.9,1626
87.96,1636
88.02,1766
88.08,1730
88.14,1604
88.2,1682
88.26,1683
88.32,1666
88.38,1606
88.44,1611
88.5,1619
88.56,1600
88.62,1628
88.68,1602
88.74,1595
88.8,1608
88.86,1555
88.92,1564
88.98,1553
89.04,1522
89.1,1596
89.16,1553
89.22,1546
89.28,1647
89.34,1566
89.4,1705
89.46,1830
89.52,2166
89.58,1950
89.64,1902
89.7,2157
89.76,1869
89.82,1899
89.88,1795
89.94,1764
90,1836