File: data/xrd_icdd_PDF/00-050-0218 (PD3).csv
8,6969
8.08,6942
8.16,7038
8.24,6800
8.32,6893
8.4,6820
8.48,6905
8.56,6675
8.64,6796
8.72,6950
8.8,6942
8.88,7088
8.96,7204
9.04,6984
9.12,6667
9.2,6581
9.28,6532
9.36,6596
9.44,6491
9.52,6463
9.6,6506
9.68,6550
9.76,6484
9.84,6408
9.92,6539
10,6452
10.08,6353
10.16,6289
10.24,6354
10.32,6408
10.4,6345
10.48,6446
10.56,6361
10.64,6325
10.72,6241
10.8,6219
10.88,6315
10.96,6280
11.04,6199
11.12,6103
11.2,6386
11.28,6618
11.36,6743
11.44,7930
11.52,10103
11.6,14626
11.68,22025
11.76,25544
11.84,12959
11.92,7190
12,6246
12.08,6041
12.16,6078
12.24,5853
12.32,5850
12.4,6070
12.48,5862
12.56,5750
12.64,5850
12.72,5900
12.8,5721
12.88,5860
12.96,5653
13.04,5671
13.12,5953
13.2,5839
13.28,5638
13.36,5661
13.44,5683
13.52,5645
13.6,5696
13.68,5632
13.76,5627
13.84,5580
13.92,5672
14,5678
14.08,5622
14.16,5478
14.24,5607
14.32,5644
14.4,5564
14.48,5643
14.56,5739
14.64,6144
14.72,6243
14.8,6145
14.88,6257
14.96,6113
15.04,5798
15.12,5684
15.2,5375
15.28,5394
15.36,5287
15.44,5577
15.52,5417
15.6,5341
15.68,5365
15.76,5174
15.84,5352
15.92,5287
16,5253
16.08,5282
16.16,5262
16.24,5318
16.32,5136
16.4,5352
16.48,5031
16.56,5206
16.64,5183
16.72,5146
16.8,5171
16.88,5180
16.96,5089
17.04,5292
17.12,5180
17.2,5288
17.28,5583
17.36,6782
17.44,9251
17.52,8847
17.6,5672
17.68,5179
17.76,5144
17.84,5297
17.92,5478
18,6071
18.08,5432
18.16,5162
18.24,4901
18.32,4946
18.4,5065
18.48,5037
18.56,4934
18.64,4911
18.72,4793
18.8,4901
18.88,4831
18.96,4836
19.04,4915
19.12,4864
19.2,4785
19.28,4841
19.36,4830
19.44,4749
19.52,4844
19.6,4826
19.68,4675
19.76,4813
19.84,4648
19.92,4748
20,4722
20.08,4790
20.16,4690
20.24,4622
20.32,4763
20.4,4729
20.48,4608
20.56,4578
20.64,4661
20.72,4665
20.8,4746
20.88,4906
20.96,5460
21.04,8099
21.12,13492
21.2,18996
21.28,10279
21.36,10427
21.44,9920
21.52,5492
21.6,4732
21.68,4799
21.76,4596
21.84,4455
21.92,4477
22,4470
22.08,4394
22.16,4426
22.24,4463
22.32,4443
22.4,4392
22.48,4383
22.56,4485
22.64,4427
22.72,4356
22.8,4339
22.88,4296
22.96,4281
23.04,4450
23.12,4200
23.2,4209
23.28,4320
23.36,4556
23.44,4909
23.52,5239
23.6,4779
23.68,4444
23.76,4337
23.84,4291
23.92,4307
24,4123
24.08,4172
24.16,4215
24.24,4096
24.32,4161
24.4,4163
24.48,4306
24.56,4419
24.64,4285
24.72,3999
24.8,4165
24.88,4084
24.96,3981
25.04,4147
25.12,3999
25.2,4159
25.28,4219
25.36,4814
25.44,6021
25.52,5003
25.6,4222
25.68,4067
25.76,4073
25.84,3962
25.92,4039
26,3987
26.08,4235
26.16,4996
26.24,5735
26.32,5024
26.4,5716
26.48,6904
26.56,5267
26.64,4082
26.72,3945
26.8,3930
26.88,3747
26.96,3844
27.04,3875
27.12,3868
27.2,3906
27.28,3861
27.36,3738
27.44,3713
27.52,3679
27.6,3744
27.68,3658
27.76,3750
27.84,3813
27.92,3785
28,4192
28.08,5057
28.16,4294
28.24,3764
28.32,3787
28.4,3783
28.48,3890
28.56,3662
28.64,3709
28.72,3649
28.8,3696
28.88,3834
28.96,3725
29.04,3718
29.12,3703
29.2,3908
29.28,4524
29.36,8132
29.44,14546
29.52,12415
29.6,25358
29.68,32678
29.76,10431
29.84,5853
29.92,5049
30,5143
30.08,8629
30.16,17599
30.24,17884
30.32,5832
30.4,3995
30.48,3751
30.56,3512
30.64,3558
30.72,3594
30.8,3669
30.88,3799
30.96,4365
31.04,9173
31.12,24053
31.2,18196
31.28,5777
31.36,3968
31.44,3681
31.52,3657
31.6,3499
31.68,3394
31.76,3412
31.84,3355
31.92,3339
32,3377
32.08,3335
32.16,3223
32.24,3293
32.32,3289
32.4,3528
32.48,4791
32.56,4574
32.64,3409
32.72,3126
32.8,3195
32.88,3280
32.96,3316
33.04,3397
33.12,3550
33.2,4231
33.28,4672
33.36,3991
33.44,3848
33.52,4467
33.6,4250
33.68,3817
33.76,4468
33.84,4003
33.92,3282
34,3195
34.08,3137
34.16,3110
34.24,3189
34.32,3059
34.4,3074
34.48,3141
34.56,3008
34.64,3020
34.72,3012
34.8,3081
34.88,2978
34.96,3027
35.04,3081
35.12,2996
35.2,2958
35.28,3040
35.36,3190
35.44,3095
35.52,2982
35.6,2942
35.68,3019
35.76,3081
35.84,3012
35.92,3481
36,4331
36.08,4192
36.16,3164
36.24,3125
36.32,3129
36.4,3158
36.48,3383
36.56,3779
36.64,3508
36.72,3799
36.8,5368
36.88,4992
36.96,3430
37.04,3639
37.12,4283
37.2,3293
37.28,3107
37.36,3324
37.44,3716
37.52,4696
37.6,3349
37.68,2958
37.76,2857
37.84,2824
37.92,2823
38,2865
38.08,2835
38.16,2985
38.24,4049
38.32,4155
38.4,2999
38.48,2776
38.56,2885
38.64,3553
38.72,4518
38.8,3427
38.88,2968
38.96,3429
39.04,3224
39.12,2946
39.2,3095
39.28,2942
39.36,2812
39.44,2794
39.52,2972
39.6,3304
39.68,3833
39.76,3733
39.84,5266
39.92,10466
40,8495
40.08,4045
40.16,3209
40.24,3157
40.32,2842
40.4,2868
40.48,3083
40.56,4350
40.64,4090
40.72,2891
40.8,2675
40.88,2724
40.96,2759
41.04,2897
41.12,2999
41.2,3124
41.28,4746
41.36,5675
41.44,3715
41.52,3126
41.6,3889
41.68,5155
41.76,3620
41.84,2990
41.92,2772
42,2668
42.08,2653
42.16,2677
42.24,2673
42.32,2676
42.4,2666
42.48,2705
42.56,2694
42.64,3152
42.72,4532
42.8,7961
42.88,8484
42.96,5651
43.04,5235
43.12,6447
43.2,6914
43.28,3597
43.36,2772
43.44,2850
43.52,3291
43.6,4312
43.68,3576
43.76,2794
43.84,2638
43.92,2594
44,2535
44.08,2657
44.16,2906
44.24,3737
44.32,3119
44.4,2675
44.48,2531
44.56,2422
44.64,2521
44.72,2524
44.8,2456
44.88,2502
44.96,2624
45.04,2656
45.12,3048
45.2,2820
45.28,2581
45.36,2505
45.44,2515
45.52,2513
45.6,2569
45.68,2584
45.76,2946
45.84,3718
45.92,3281
46,2772
46.08,2941
46.16,2860
46.24,2568
46.32,2695
46.4,2710
46.48,2587
46.56,2462
46.64,2371
46.72,2495
46.8,2561
46.88,2953
46.96,4525
47.04,4225
47.12,2864
47.2,2617
47.28,2493
47.36,2552
47.44,2856
47.52,3635
47.6,3679
47.68,4233
47.76,4233
47.84,3468
47.92,3965
48,3250
48.08,2750
48.16,2732
48.24,2888
48.32,4317
48.4,4571
48.48,3478
48.56,4779
48.64,5001
48.72,3447
48.8,2702
48.88,2480
48.96,2501
49.04,2478
49.12,2384
49.2,2403
49.28,2336
49.36,2411
49.44,2365
49.52,2507
49.6,2446
49.68,2481
49.76,3060
49.84,3604
49.92,2706
50,2466
50.08,2728
50.16,2826
50.24,2425
50.32,2394
50.4,2388
50.48,2439
50.56,2360
50.64,2369
50.72,2288
50.8,2417
50.88,2749
50.96,3417
51.04,3208
51.12,2583
51.2,2551
51.28,2776
51.36,3338
51.44,4292
51.52,3436
51.6,4257
51.68,5945
51.76,3970
51.84,2648
51.92,2822
52,2840
52.08,2475
52.16,2546
52.24,3057
52.32,3548
52.4,2949
52.48,2515
52.56,2381
52.64,2354
52.72,2518
52.8,2787
52.88,2538
52.96,2440
53.04,2459
53.12,2981
53.2,3915
53.28,4529
53.36,4992
53.44,2913
53.52,2471
53.6,2364
53.68,2323
53.76,2299
53.84,2372
53.92,2540
54,3254
54.08,3905
54.16,4390
54.24,6290
54.32,4970
54.4,3160
54.48,3964
54.56,4080
54.64,2989
54.72,3022
54.8,3127
54.88,3655
54.96,2992
55.04,2379
55.12,2372
55.2,2264
55.28,2392
55.36,2386
55.44,2306
55.52,2343
55.6,2601
55.68,2759
55.76,2610
55.84,2826
55.92,3163
56,3104
56.08,3105
56.16,2725
56.24,2409
56.32,2363
56.4,2282
56.48,2249
56.56,2221
56.64,2309
56.72,2712
56.8,2912
56.88,2329
56.96,2267
57.04,2202
57.12,2196
57.2,2178
57.28,2375
57.36,2899
57.44,2879
57.52,2449
57.6,2541
57.68,3536
57.76,3552
57.84,2684
57.92,2422
58,2608
58.08,3844
58.16,3439
58.24,3151
58.32,3191
58.4,2478
58.48,2318
58.56,2197
58.64,2247
58.72,2164
58.8,2189
58.88,2144
58.96,2428
59.04,3142
59.12,2739
59.2,2409
59.28,2255
59.36,2140
59.44,2281
59.52,2617
59.6,2780
59.68,2556
59.76,2330
59.84,2401
59.92,2737
60,2795
60.08,2589
60.16,2717
60.24,2601
60.32,3175
60.4,3151
60.48,2327
60.56,2312
60.64,2255
60.72,2224
60.8,2228
60.88,2289
60.96,2977
61.04,3312
61.12,2804
61.2,2428
61.28,2602
61.36,2890
61.44,2936
61.52,2977
61.6,4452
61.68,3584
61.76,2439
61.84,2247
61.92,2252
62,2514
62.08,2514
62.16,2290
62.24,2172
62.32,2418
62.4,2526
62.48,2224
62.56,2284
62.64,2364
62.72,2508
62.8,4083
62.88,4340
62.96,2704
63.04,2251
63.12,2252
63.2,2183
63.28,2091
63.36,2334
63.44,2580
63.52,2873
63.6,2352
63.68,2093
63.76,2287
63.84,2347
63.92,2189
64,2153
64.08,2130
64.16,2680
64.24,2526
64.32,2183
64.4,2289
64.48,2412
64.56,2244
64.64,2144
64.72,2405
64.8,2444
64.88,2626
64.96,3620
65.04,3215
65.12,2441
65.2,2227
65.28,2247
65.36,2197
65.44,2142
65.52,2157
65.6,2330
65.68,2546
65.76,2649
65.84,2486
65.92,2296
66,2232
66.08,2121
66.16,2046
66.24,2085
66.32,2107
66.4,2241
66.48,2288
66.56,2240
66.64,2113
66.72,2083
66.8,2016
66.88,2025
66.96,2065
67.04,2097
67.12,2218
67.2,2528
67.28,2396
67.36,2181
67.44,2129
67.52,2202
67.6,2395
67.68,2191
67.76,2173
67.84,2249
67.92,2446
68,2331
68.08,2157
68.16,2193
68.24,2232
68.32,2371
68.4,2587
68.48,2780
68.56,2675
68.64,2249
68.72,2177
68.8,2304
68.88,2307
68.96,2522
69.04,2766
69.12,2347
69.2,2144
69.28,2114
69.36,2115
69.44,2197
69.52,2241
69.6,2969
69.68,2953
69.76,2658
69.84,3134
69.92,2804
70,2514
70.08,2873
70.16,3972
70.24,3460
70.32,2633
70.4,2244
70.48,2478
70.56,2498
70.64,2328
70.72,2267
70.8,2348
70.88,2897
70.96,3547
71.04,4003
71.12,3411
71.2,2888
71.28,2501
71.36,2224
71.44,2196
71.52,2156
71.6,2459
71.68,2579
71.76,2480
71.84,2261
71.92,2276
72,2552
72.08,2550
72.16,2391
72.24,2428
72.32,2636
72.4,2373
72.48,2129
72.56,2073
72.64,2049
72.72,2039
72.8,2217
72.88,2178
72.96,2033
73.04,2015
73.12,2061
73.2,2112
73.28,2095
73.36,2180
73.44,2036
73.52,2013
73.6,2010
73.68,2027
73.76,2003
73.84,1953
73.92,2059
74,1943
74.08,1989
74.16,2134
74.24,2026
74.32,1977
74.4,1965
74.48,2034
74.56,2238
74.64,2320
74.72,2329
74.8,2136
74.88,2165
74.96,2127
75.04,2215
75.12,2259
75.2,2595
75.28,2872
75.36,2591
75.44,2205
75.52,2159
75.6,2057
75.68,2151
75.76,2528
75.84,2732
75.92,2610
76,2493
76.08,2279
76.16,2311
76.24,2400
76.32,2553
76.4,2804
76.48,2521
76.56,2449
76.64,2689
76.72,2670
76.8,2479
76.88,2182
76.96,2187
77.04,2104
77.12,2334
77.2,2695
77.28,2493
77.36,2223
77.44,2150
77.52,2599
77.6,2600
77.68,2194
77.76,2209
77.84,2093
77.92,2075
78,2032
78.08,2035
78.16,2058
78.24,2123
78.32,2386
78.4,2804
78.48,2653
78.56,2263
78.64,2181
78.72,2188
78.8,2052
78.88,2092
78.96,2197
79.04,2156
79.12,2084
79.2,2199
79.28,2252
79.36,2166
79.44,2150
79.52,2438
79.6,2781
79.68,2461
79.76,2289
79.84,2392
79.92,2448
80,2589
80.08,2539
80.16,2398
80.24,2266
80.32,2172
80.4,2071
80.48,2068
80.56,2231
80.64,2148
80.72,2165
80.8,2097
80.88,2022
80.96,2360
81.04,2449
81.12,2220
81.2,2369
81.28,2160
81.36,2121
81.44,2092
81.52,2110
81.6,2085
81.68,1995
81.76,1982
81.84,1912
81.92,1874
82,2013
82.08,1996
82.16,1920
82.24,2040
82.32,1975
82.4,2012
82.48,2225
82.56,2092
82.64,2073
82.72,2293
82.8,2241
82.88,2225
82.96,2309
83.04,2384
83.12,2338
83.2,2208
83.28,2318
83.36,2148
83.44,2071
83.52,2001
83.6,2097
83.68,2336
83.76,2711
83.84,2426
83.92,2088
84,2039
84.08,2045
84.16,1901
84.24,2055
84.32,2022
84.4,2005
84.48,1997
84.56,2190
84.64,2261
84.72,2193
84.8,2158
84.88,2081
84.96,2048
85.04,2074
85.12,2195
85.2,2346
85.28,2130
85.36,2233
85.44,2249
85.52,2324
85.6,2331
85.68,2236
85.76,2084
85.84,2192
85.92,2140
86,2202
86.08,2292
86.16,2688
86.24,2674
86.32,2384
86.4,2321
86.48,2196
86.56,2190
86.64,2089
86.72,2127
86.8,2549
86.88,2928
86.96,2889
87.04,2542
87.12,2208
87.2,2137
87.28,2080
87.36,2180
87.44,2067
87.52,2110
87.6,2245
87.68,2556
87.76,2362
87.84,2075
87.92,1962
88,1935
88.08,1984
88.16,1797
88.24,1898
88.32,1933
88.4,1968
88.48,1978
88.56,2120
88.64,1956
88.72,2039
88.8,2245
88.88,2221
88.96,2207
89.04,2141
89.12,2233
89.2,2161
89.28,2112
89.36,1945
89.44,1952
89.52,1919
89.6,2033
89.68,2256
89.76,2390
89.84,2456
89.92,2189
90,1984
90.08,1987
90.16,1897
90.24,1942
90.32,1888
90.4,1915
90.48,1929
90.56,2067
90.64,2033
90.72,2062
90.8,2290
90.88,2256
90.96,2170
91.04,2263
91.12,2089
91.2,1990
91.28,1885
91.36,1921
91.44,1903
91.52,1927
91.6,2025
91.68,1896
91.76,1855
91.84,1965
91.92,1953
92,2041
92.08,2148
92.16,2141
92.24,2033
92.32,1868
92.4,1933
92.48,1951
92.56,2025
92.64,2099
92.72,2138
92.8,2213
92.88,2133
92.96,2009
93.04,1950
93.12,2001
93.2,1923
93.28,1863
93.36,1933
93.44,1968
93.52,1996
93.6,2029
93.68,2079
93.76,2161
93.84,2270
93.92,2596
94,2639
94.08,2489
94.16,2295
94.24,2138
94.32,2129
94.4,2261
94.48,2206
94.56,2120
94.64,1888
94.72,2000
94.8,2091
94.88,2153
94.96,2159
95.04,2184
95.12,2183
95.2,2131
95.28,2043
95.36,1949
95.44,2017
95.52,1969
95.6,1901
95.68,1940
95.76,1961
95.84,2123
95.92,2136
96,2000
96.08,2051
96.16,2069
96.24,2132
96.32,2023
96.4,2020
96.48,2078
96.56,2090
96.64,2187
96.72,2359
96.8,2421
96.88,2400
96.96,2140
97.04,2088
97.12,1993
97.2,1924
97.28,2063
97.36,2007
97.44,2041
97.52,1961
97.6,1993
97.68,2090
97.76,2091
97.84,1983
97.92,2165
98,2309
98.08,2293
98.16,2042
98.24,2049
98.32,2011
98.4,2042
98.48,2013
98.56,2054
98.64,1983
98.72,1956
98.8,1871
98.88,1915
98.96,1897
99.04,1951
99.12,1989
99.2,1932
99.28,1980
99.36,2134
99.44,2148
99.52,2028
99.6,2000
99.68,2033
99.76,2092
99.84,2148
99.92,2067
100,2008
100.08,2115
100.16,2122
100.24,2136
100.32,2232
100.4,2201
100.48,2041
100.56,2122
100.64,2080
100.72,2106
100.8,2102
100.88,2012
100.96,1933
101.04,1945
101.12,1912
101.2,2016
101.28,2267
101.36,2095
101.44,2037
101.52,1980
101.6,2064
101.68,2009
101.76,2133
101.84,2158
101.92,2165
102,2085
102.08,1927
102.16,2032
102.24,2020
102.32,2039
102.4,2090
102.48,2016
102.56,1917
102.64,1937
102.72,2125
102.8,2108
102.88,2255
102.96,2222
103.04,2021
103.12,2124
103.2,2205
103.28,2086
103.36,2117
103.44,2023
103.52,2052
103.6,2091
103.68,2093
103.76,2077
103.84,2081
103.92,2093
104,1990
104.08,2109
104.16,2105
104.24,2270
104.32,2054
104.4,1994
104.48,1983
104.56,1993
104.64,1980
104.72,1907
104.8,1988
104.88,1992
104.96,1995
105.04,2028
105.12,1977
105.2,1980
105.28,2097
105.36,2280
105.44,2090
105.52,2149
105.6,2163
105.68,2205
105.76,2259
105.84,2223
105.92,1973
106,2075
106.08,2108
106.16,2135
106.24,2012
106.32,2055
106.4,1941
106.48,2012
106.56,2001
106.64,2120
106.72,2229
106.8,2090
106.88,2151
106.96,2040
107.04,2011
107.12,1987
107.2,1924
107.28,1987
107.36,2157
107.44,2173
107.52,2081
107.6,2052
107.68,2015
107.76,2024
107.84,2051
107.92,1949
108,1996
108.08,2074
108.16,2036
108.24,2008
108.32,2054
108.4,2185
108.48,2067
108.56,1977
108.64,2054
108.72,2054
108.8,2066
108.88,2161
108.96,2231
109.04,2114
109.12,2217
109.2,2241
109.28,2218
109.36,2162
109.44,2059
109.52,2012
109.6,2117
109.68,2033
109.76,2090
109.84,1940
109.92,2177
109.98,2224