File: data/xrd_icdd_PDF/00-051-0137 (PD3).csv
5,574
5.1,566
5.2,560
5.3,580
5.4,596
5.5,580
5.6,535
5.7,582
5.8,535
5.9,518
6,518
6.1,560
6.2,512
6.3,526
6.4,552
6.5,538
6.6,498
6.7,524
6.8,577
6.9,554
7,574
7.1,535
7.2,524
7.3,512
7.4,470
7.5,482
7.6,462
7.7,487
7.8,440
7.9,496
8,479
8.1,543
8.2,482
8.3,484
8.4,490
8.5,479
8.6,451
8.7,434
8.8,493
8.9,420
9,468
9.1,417
9.2,462
9.3,448
9.4,462
9.5,462
9.6,479
9.7,465
9.8,462
9.9,451
10,451
10.1,465
10.2,473
10.3,459
10.4,468
10.5,501
10.6,470
10.7,487
10.8,476
10.9,445
11,456
11.1,510
11.2,465
11.3,482
11.4,448
11.5,454
11.6,420
11.7,428
11.8,484
11.9,563
12,1151
12.1,510
12.2,454
12.3,454
12.4,420
12.5,473
12.6,465
12.7,476
12.8,465
12.9,445
13,490
13.1,470
13.2,470
13.3,476
13.4,476
13.5,456
13.6,406
13.7,392
13.8,434
13.9,423
14,406
14.1,451
14.2,454
14.3,437
14.4,437
14.5,445
14.6,403
14.7,454
14.8,412
14.9,465
15,445
15.1,465
15.2,448
15.3,409
15.4,484
15.5,465
15.6,468
15.7,459
15.8,445
15.9,473
16,448
16.1,451
16.2,434
16.3,510
16.4,462
16.5,493
16.6,459
16.7,496
16.8,521
16.9,554
17,1784
17.1,2164
17.2,560
17.3,468
17.4,476
17.5,484
17.6,501
17.7,423
17.8,482
17.9,442
18,448
18.1,448
18.2,442
18.3,445
18.4,451
18.5,386
18.6,420
18.7,412
18.8,395
18.9,440
19,484
19.1,412
19.2,426
19.3,414
19.4,378
19.5,434
19.6,456
19.7,372
19.8,423
19.9,384
20,400
20.1,392
20.2,398
20.3,437
20.4,398
20.5,420
20.6,398
20.7,442
20.8,518
20.9,1030
21,493
21.1,370
21.2,417
21.3,386
21.4,426
21.5,378
21.6,417
21.7,409
21.8,398
21.9,381
22,356
22.1,403
22.2,370
22.3,364
22.4,392
22.5,400
22.6,392
22.7,364
22.8,356
22.9,358
23,330
23.1,420
23.2,364
23.3,347
23.4,398
23.5,398
23.6,417
23.7,378
23.8,412
23.9,381
24,566
24.1,3506
24.2,5099
24.3,890
24.4,529
24.5,406
24.6,409
24.7,414
24.8,367
24.9,350
25,350
25.1,384
25.2,347
25.3,381
25.4,353
25.5,372
25.6,378
25.7,350
25.8,353
25.9,344
26,375
26.1,398
26.2,507
26.3,437
26.4,428
26.5,417
26.6,504
26.7,563
26.8,714
26.9,1072
27,4850
27.1,21524
27.2,4228
27.3,972
27.4,644
27.5,568
27.6,462
27.7,431
27.8,403
27.9,403
28,372
28.1,396
28.2,377
28.3,422
28.4,416
28.5,419
28.6,422
28.7,437
28.8,442
28.9,472
29,502
29.1,529
29.2,584
29.3,619
29.4,697
29.5,1016
29.6,2803
29.7,31878
29.8,16411
29.9,2080
30,890
30.1,650
30.2,591
30.3,501
30.4,487
30.5,412
30.6,448
30.7,428
30.8,418
30.9,418
31,433
31.1,437
31.2,426
31.3,400
31.4,440
31.5,409
31.6,403
31.7,442
31.8,482
31.9,594
32,938
32.1,7087
32.2,5611
32.3,1140
32.4,543
32.5,440
32.6,395
32.7,375
32.8,350
32.9,347
33,325
33.1,328
33.2,302
33.3,339
33.4,347
33.5,308
33.6,372
33.7,325
33.8,358
33.9,353
34,350
34.1,400
34.2,423
34.3,512
34.4,1050
34.5,4945
34.6,2800
34.7,552
34.8,372
34.9,344
35,353
35.1,344
35.2,308
35.3,358
35.4,328
35.5,330
35.6,314
35.7,344
35.8,294
35.9,316
36,314
36.1,347
36.2,339
36.3,342
36.4,468
36.5,1296
36.6,4614
36.7,2503
36.8,650
36.9,333
37,339
37.1,300
37.2,297
37.3,277
37.4,316
37.5,272
37.6,288
37.7,305
37.8,286
37.9,283
38,308
38.1,283
38.2,266
38.3,300
38.4,258
38.5,272
38.6,246
38.7,280
38.8,269
38.9,274
39,294
39.1,272
39.2,280
39.3,266
39.4,288
39.5,266
39.6,272
39.7,258
39.8,258
39.9,238
40,260
40.1,277
40.2,246
40.3,288
40.4,294
40.5,403
40.6,1296
40.7,1319
40.8,638
40.9,314
41,286
41.1,266
41.2,260
41.3,291
41.4,294
41.5,255
41.6,260
41.7,291
41.8,260
41.9,291
42,283
42.1,325
42.2,356
42.3,462
42.4,944
42.5,3640
42.6,3688
42.7,2080
42.8,552
42.9,392
43,347
43.1,316
43.2,311
43.3,314
43.4,266
43.5,311
43.6,269
43.7,272
43.8,269
43.9,311
44,330
44.1,428
44.2,969
44.3,4444
44.4,3024
44.5,955
44.6,470
44.7,336
44.8,272
44.9,269
45,238
45.1,280
45.2,274
45.3,297
45.4,294
45.5,297
45.6,269
45.7,280
45.8,319
45.9,375
46,952
46.1,2562
46.2,1809
46.3,588
46.4,347
46.5,308
46.6,300
46.7,286
46.8,274
46.9,280
47,294
47.1,302
47.2,311
47.3,316
47.4,347
47.5,496
47.6,627
47.7,1456
47.8,7846
47.9,6331
48,3419
48.1,823
48.2,465
48.3,356
48.4,305
48.5,311
48.6,308
48.7,263
48.8,269
48.9,255
49,260
49.1,269
49.2,302
49.3,342
49.4,1086
49.5,1151
49.6,840
49.7,398
49.8,342
49.9,300
50,286
50.1,280
50.2,232
50.3,232
50.4,269
50.5,260
50.6,283
50.7,255
50.8,263
50.9,305
51,386
51.1,1543
51.2,1386
51.3,1294
51.4,398
51.5,300
51.6,246
51.7,241
51.8,230
51.9,230
52,269
52.1,246
52.2,221
52.3,274
52.4,266
52.5,260
52.6,269
52.7,294
52.8,428
52.9,333
53,297
53.1,255
53.2,221
53.3,193
53.4,244
53.5,227
53.6,288
53.7,249
53.8,280
53.9,241
54,246
54.1,280
54.2,619
54.3,504
54.4,552
54.5,353
54.6,274
54.7,252
54.8,224
54.9,224
55,232
55.1,246
55.2,263
55.3,246
55.4,224
55.5,274
55.6,269
55.7,342
55.8,966
55.9,647
56,560
56.1,339
56.2,263
56.3,283
56.4,314
56.5,286
56.6,280
56.7,316
56.8,333
56.9,384
57,507
57.1,776
57.2,2904
57.3,6950
57.4,5732
57.5,3433
57.6,1291
57.7,568
57.8,398
57.9,342
58,308
58.1,311
58.2,266
58.3,249
58.4,294
58.5,294
58.6,400
58.7,476
58.8,1478
58.9,2806
59,1613
59.1,944
59.2,400
59.3,283
59.4,274
59.5,258
59.6,269
59.7,269
59.8,260
59.9,269
60,260
60.1,398
60.2,944
60.3,652
60.4,538
60.5,339
60.6,263
60.7,241
60.8,224
60.9,213
61,199
61.1,232
61.2,238
61.3,255
61.4,300
61.5,339
61.6,720
61.7,1700
61.8,980
61.9,748
62,342
62.1,255
62.2,238
62.3,179
62.4,241
62.5,199
62.6,216
62.7,224
62.8,216
62.9,291
63,644
63.1,731
63.2,958
63.3,529
63.4,414
63.5,263
63.6,244
63.7,232
63.8,224
63.9,235
64,199
64.1,230
64.2,230
64.3,235
64.4,221
64.5,218
64.6,199
64.7,196
64.8,207
64.9,213
65,196
65.1,210
65.2,210
65.3,216
65.4,230
65.5,232
65.6,305
65.7,574
65.8,1837
65.9,1394
66,1271
66.1,652
66.2,314
66.3,232
66.4,227
66.5,218
66.6,216
66.7,216
66.8,216
66.9,238
67,232
67.1,244
67.2,358
67.3,280
67.4,266
67.5,213
67.6,204
67.7,213
67.8,188
67.9,202
68,179
68.1,196
68.2,224
68.3,227
68.4,269
68.5,624
68.6,1086
68.7,694
68.8,644
68.9,353
69,227
69.1,230
69.2,221
69.3,230
69.4,207
69.5,216
69.6,258
69.7,288
69.8,498
69.9,837
70,848
70.1,689
70.2,524
70.3,322
70.4,246
70.5,246
70.6,221
70.7,218
70.8,216
70.9,241
71,280
71.1,384
71.2,728
71.3,1557
71.4,1072
71.5,941
71.6,644
71.7,274
71.8,288
71.9,238
72,246
72.1,252
72.2,241
72.3,216
72.4,238
72.5,246
72.6,330
72.7,532
72.8,557
72.9,389
73,395
73.1,280
73.2,252
73.3,272
73.4,246
73.5,314
73.6,322
73.7,549
73.8,1778
73.9,2061
74,1397
74.1,1330
74.2,580
74.3,358
74.4,266
74.5,216
74.6,249
74.7,221
74.8,210
74.9,230
75,196
75.1,246
75.2,218
75.3,232
75.4,207
75.5,213
75.6,218
75.7,202
75.8,213
75.9,196
76,196
76.1,238
76.2,238
76.3,263
76.4,686
76.5,1030
76.6,602
76.7,759
76.8,445
76.9,283
77,241
77.1,238
77.2,235
77.3,193
77.4,213
77.5,199
77.6,246
77.7,462
77.8,540
77.9,630
78,574
78.1,409
78.2,386
78.3,255
78.4,230
78.5,224
78.6,199
78.7,260
78.8,294
78.9,420
79,801
79.1,1436
79.2,854
79.3,820
79.4,633
79.5,305
79.6,255
79.7,213
79.8,196
79.9,213
80,182
80.1,216
80.2,218
80.3,210
80.4,227
80.5,190
80.6,204
80.7,224
80.8,207
80.9,221
81,246
81.1,244
81.2,252
81.3,249
81.4,504
81.5,997
81.6,1196
81.7,1378
81.8,1221
81.9,893
82,683
82.1,378
82.2,258
82.3,224
82.4,241
82.5,218
82.6,207
82.7,230
82.8,199
82.9,204
83,204
83.1,204
83.2,204
83.3,204
83.4,224
83.5,221
83.6,230
83.7,244
83.8,258
83.9,339
84,890
84.1,1022
84.2,798
84.3,921
84.4,552
84.5,414
84.6,339
84.7,216
84.8,199
84.9,213
85,224
85.1,182
85.2,165
85.3,188
85.4,202
85.5,202
85.6,188
85.7,199
85.8,196
85.9,176
86,218
86.1,168
86.2,210
86.3,207
86.4,227
86.5,314
86.6,437
86.7,602
86.8,395
86.9,386
87,339
87.1,227
87.2,188
87.3,190
87.4,185
87.5,202
87.6,207
87.7,202
87.8,190
87.9,260
88,336
88.1,314
88.2,255
88.3,297
88.4,258
88.5,216
88.6,216
88.7,207
88.8,210
88.9,235
89,367
89.1,560
89.2,736
89.3,773
89.4,619
89.5,546
89.6,493
89.7,322
89.8,207
89.9,204
90,202
90.1,216
90.2,207
90.3,230
90.4,325
90.5,322
90.6,249
90.7,308
90.8,269
90.9,224
91,232
91.1,224
91.2,218
91.3,230
91.4,283
91.5,398
91.6,762
91.7,616
91.8,456
91.9,546
92,384
92.1,272
92.2,202
92.3,213
92.4,190
92.5,204
92.6,224
92.7,246
92.8,330
92.9,361
93,406
93.1,440
93.2,336
93.3,302
93.4,302
93.5,252
93.6,227
93.7,244
93.8,249
93.9,302
94,546
94.1,778
94.2,868
94.3,680
94.4,552
94.5,580
94.6,384
94.7,274
94.8,272
94.9,235
95,269
95.1,227
95.2,322
95.3,479
95.4,437
95.5,353
95.6,372
95.7,356
95.8,311
95.9,272
96,238
96.1,232
96.2,210
96.3,221
96.4,269
96.5,465
96.6,650
96.7,577
96.8,538
96.9,532
97,459
97.1,339
97.2,260
97.3,238
97.4,230
97.5,227
97.6,188
97.7,218
97.8,314
97.9,255
98,246
98.1,266
98.2,235
98.3,216
98.4,202
98.5,202
98.6,174
98.7,185
98.8,190
98.9,196
99,224
99.1,199
99.2,291
99.3,398
99.4,456
99.5,423
99.6,367
99.7,372
99.8,328
99.9,255
100,210
100.1,216
100.2,230
100.3,294
100.4,372
100.5,353
100.6,406
100.7,577
100.8,568
100.9,364
101,361
101.1,358
101.2,305
101.3,241
101.4,232
101.5,218
101.6,232
101.7,232
101.8,238
101.9,202
102,204
102.1,227
102.2,230
102.3,157
102.4,190
102.5,216
102.6,207
102.7,190
102.8,221
102.9,294
103,381
103.1,333
103.2,294
103.3,291
103.4,297
103.5,272
103.6,244
103.7,252
103.8,244
103.9,232
104,277
104.1,414
104.2,778
104.3,1271
104.4,1249
104.5,1000
104.6,846
104.7,846
104.8,689
104.9,510
105,356
105.1,255
105.2,221
105.3,213
105.4,218
105.5,210
105.6,199
105.7,224
105.8,230
105.9,190
106,199
106.1,216
106.2,190
106.3,190
106.4,182
106.5,210
106.6,182
106.7,221
106.8,235
106.9,314
107,437
107.1,482
107.2,381
107.3,316
107.4,322
107.5,350
107.6,258
107.7,218
107.8,230
107.9,216
108,235
108.1,302
108.2,319
108.3,364
108.4,361
108.5,330
108.6,272
108.7,272
108.8,272
108.9,227
109,218
109.1,202
109.2,196
109.3,227
109.4,252
109.5,260
109.6,308
109.7,280
109.8,288
109.9,249
110,244
110.1,232
110.2,227
110.3,213
110.4,207
110.5,185
110.6,199
110.7,193
110.8,224
110.9,216
111,202
111.1,288
111.2,316
111.3,280
111.4,241
111.5,235
111.6,266
111.7,244
111.8,235
111.9,244
112,316
112.1,420
112.2,462
112.3,493
112.4,613
112.5,636
112.6,672
112.7,451
112.8,440
112.9,417
113,370
113.1,302
113.2,244
113.3,252
113.4,216
113.5,238
113.6,241
113.7,218
113.8,202
113.9,221
114,174
114.1,218
114.2,232
114.3,199
114.4,213
114.5,188
114.6,210
114.7,216
114.8,221
114.9,232
115,238
115.1,238
115.2,221
115.3,238
115.4,207
115.5,246
115.6,232
115.7,227
115.8,227
115.9,224
116,202
116.1,238
116.2,302
116.3,364
116.4,428
116.5,367
116.6,367
116.7,336
116.8,381
116.9,356
117,266
117.1,263
117.2,241
117.3,249
117.4,263
117.5,311
117.6,378
117.7,507
117.8,624
117.9,571
118,476
118.1,364
118.2,437
118.3,420
118.4,347
118.5,314
118.6,227
118.7,227
118.8,246
118.9,238
119,213
119.1,232
119.2,232
119.3,244
119.4,246
119.5,244
119.6,244
119.7,227
119.8,210
119.9,277
120,255
120.1,322
120.2,322
120.3,389
120.4,563
120.5,820
120.6,1047
120.7,916
120.8,938
120.9,1039
121,1036
121.1,818
121.2,678
121.3,636
121.4,582
121.5,526
121.6,386
121.7,339
121.8,314
121.9,288
122,330
122.1,406
122.2,414
122.3,336
122.4,294
122.5,319
122.6,330
122.7,342
122.8,328
122.9,319
123,249
123.1,274
123.2,283
123.3,286
123.4,384
123.5,487
123.6,599
123.7,722
123.8,778
123.9,619
124,507
124.1,482
124.2,493
124.3,552
124.4,524
124.5,378
124.6,316
124.7,260
124.8,241
124.9,272
125,274
125.1,258
125.2,252
125.3,260
125.4,294
125.5,288
125.6,325
125.7,325
125.8,274
125.9,297
126,255
126.1,258
126.2,260
126.3,272
126.4,260
126.5,252
126.6,260
126.7,260
126.8,238
126.9,230
127,238
127.1,272
127.2,260
127.3,246
127.4,258
127.5,227
127.6,238
127.7,218
127.8,244
127.9,255
128,224
128.1,263
128.2,224
128.3,210
128.4,246
128.5,241
128.6,249
128.7,255
128.8,255
128.9,266
129,235
129.1,235
129.2,272
129.3,288
129.4,305
129.5,328
129.6,437
129.7,574
129.8,622
129.9,734
130,605
130.1,599
130.2,647
130.3,574
130.4,560
130.5,546
130.6,487
130.7,476
130.8,428
130.9,370
131,316
131.1,314
131.2,333
131.3,409
131.4,375
131.5,381
131.6,367
131.7,336
131.8,342
131.9,378
132,409
132.1,406
132.2,384
132.3,353
132.4,302
132.5,342
132.6,302
132.7,325
132.8,339
132.9,342
133,344
133.1,358
133.2,350
133.3,353
133.4,330
133.5,389
133.6,370
133.7,347
133.8,316
133.9,333
134,350
134.1,342
134.2,258
134.3,308
134.4,319
134.5,294
134.6,356
134.7,353
134.8,395
134.9,434
135,378
135.1,400
135.2,412
135.3,409
135.4,431
135.5,347
135.6,347
135.7,336
135.8,302
135.9,302
136,300
136.1,308
136.2,302
136.3,297
136.4,288
136.5,288
136.6,361
136.7,406
136.8,398
136.9,423
137,358
137.1,367
137.2,384
137.3,395
137.4,426
137.5,462
137.6,400
137.7,353
137.8,286
137.9,305
138,311
138.1,342
138.2,302
138.3,297
138.4,283
138.5,316
138.6,342
138.7,398
138.8,375
138.9,372
139,322
139.1,328
139.2,330
139.3,272
139.4,316
139.5,319
139.6,361
139.7,333
139.8,311
139.9,325
140,336