File: data/xrd_icdd_PDF/00-063-0411 (PD3).csv
5,782
5.08,736
5.16,760
5.24,703
5.32,713
5.4,690
5.48,730
5.56,715
5.64,724
5.72,709
5.8,663
5.88,706
5.96,648
6.04,704
6.12,667
6.2,635
6.28,646
6.36,655
6.44,666
6.52,618
6.6,637
6.68,614
6.76,619
6.84,633
6.92,628
7,627
7.08,602
7.16,627
7.24,572
7.32,583
7.4,560
7.48,602
7.56,588
7.64,597
7.72,584
7.8,538
7.88,583
7.96,525
8.04,583
8.12,547
8.2,515
8.28,527
8.36,538
8.44,550
8.52,503
8.6,523
8.68,500
8.76,506
8.84,521
8.92,518
9,494
9.08,505
9.16,511
9.24,497
9.32,477
9.4,511
9.48,502
9.56,481
9.64,499
9.72,484
9.8,485
9.88,516
9.96,472
10.04,486
10.12,450
10.2,483
10.28,467
10.36,448
10.44,438
10.52,449
10.6,443
10.68,406
10.76,430
10.84,434
10.92,443
11,411
11.08,401
11.16,413
11.24,369
11.32,415
11.4,406
11.48,380
11.56,410
11.64,382
11.72,418
11.8,405
11.88,387
11.96,378
12.04,390
12.12,385
12.2,349
12.28,373
12.36,378
12.44,388
12.52,356
12.6,347
12.68,359
12.76,316
12.84,362
12.92,330
13,359
13.08,367
13.16,314
13.24,327
13.32,307
13.4,351
13.48,339
13.56,351
13.64,340
13.72,297
13.8,344
13.88,288
13.96,348
14.04,314
14.12,285
14.2,299
14.28,312
14.36,326
14.44,281
14.52,303
14.6,283
14.68,291
14.76,308
14.84,307
14.92,309
15,287
15.08,315
15.16,263
15.24,277
15.32,257
15.4,302
15.48,291
15.56,304
15.64,293
15.72,251
15.8,298
15.88,244
15.96,305
16.04,271
16.12,243
16.2,258
16.28,273
16.36,288
16.44,245
16.52,271
16.6,255
16.68,272
16.76,305
16.84,341
16.92,382
17,395
17.08,342
17.16,293
17.24,260
17.32,288
17.4,276
17.48,253
17.56,267
17.64,244
17.72,229
17.8,252
17.88,227
17.96,259
18.04,233
18.12,270
18.2,259
18.28,243
18.36,236
18.44,251
18.52,224
18.6,247
18.68,224
18.76,239
18.84,248
18.92,237
19,221
19.08,258
19.16,252
19.24,233
19.32,252
19.4,233
19.48,225
19.56,249
19.64,269
19.72,202
19.8,257
19.88,279
19.96,269
20.04,263
20.12,255
20.2,253
20.28,235
20.36,215
20.44,249
20.52,240
20.6,219
20.68,235
20.76,213
20.84,199
20.92,211
21,230
21.08,223
21.16,187
21.24,190
21.32,205
21.4,185
21.48,219
21.56,196
21.64,228
21.72,193
21.8,203
21.88,222
21.96,222
22.04,202
22.12,217
22.2,228
22.28,217
22.36,202
22.44,240
22.52,234
22.6,218
22.68,238
22.76,221
22.84,214
22.92,236
23,270
23.08,293
23.16,318
23.24,461
23.32,688
23.4,635
23.48,493
23.56,371
23.64,333
23.72,262
23.8,278
23.88,256
23.96,234
24.04,223
24.12,235
24.2,230
24.28,196
24.36,222
24.44,228
24.52,241
24.6,195
24.68,219
24.76,225
24.84,212
24.92,227
25,239
25.08,256
25.16,233
25.24,220
25.32,279
25.4,369
25.48,437
25.56,347
25.64,267
25.72,261
25.8,225
25.88,249
25.96,250
26.04,247
26.12,224
26.2,253
26.28,266
26.36,264
26.44,295
26.52,334
26.6,346
26.68,445
26.76,652
26.84,1070
26.92,1552
27,1456
27.08,1294
27.16,1224
27.24,863
27.32,595
27.4,396
27.48,360
27.56,360
27.64,366
27.72,306
27.8,260
27.88,265
27.96,230
28.04,252
28.12,250
28.2,242
28.28,249
28.36,227
28.44,256
28.52,204
28.6,219
28.68,213
28.76,209
28.84,232
28.92,237
29,223
29.08,237
29.16,248
29.24,261
29.32,232
29.4,208
29.48,244
29.56,274
29.64,290
29.72,269
29.8,300
29.88,420
29.96,460
30.04,421
30.12,339
30.2,295
30.28,287
30.36,258
30.44,284
30.52,231
30.6,246
30.68,228
30.76,274
30.84,266
30.92,281
31,273
31.08,233
31.16,284
31.24,233
31.32,297
31.4,267
31.48,262
31.56,283
31.64,286
31.72,269
31.8,288
31.88,302
31.96,295
32.04,284
32.12,326
32.2,325
32.28,313
32.36,337
32.44,325
32.52,323
32.6,348
32.68,382
32.76,394
32.84,380
32.92,412
33,475
33.08,531
33.16,599
33.24,679
33.32,849
33.4,986
33.48,1748
33.56,2913
33.64,4437
33.72,4930
33.8,4303
33.88,2734
33.96,2375
34.04,2869
34.12,3523
34.2,5200
34.28,8740
34.36,10353
34.44,7642
34.52,4436
34.6,2533
34.68,1666
34.76,1214
34.84,965
34.92,832
35,793
35.08,815
35.16,936
35.24,1177
35.32,1298
35.4,1582
35.48,1583
35.56,1184
35.64,804
35.72,566
35.8,522
35.88,443
35.96,417
36.04,402
36.12,428
36.2,463
36.28,500
36.36,558
36.44,476
36.52,442
36.6,384
36.68,411
36.76,398
36.84,386
36.92,390
37,426
37.08,460
37.16,503
37.24,698
37.32,1080
37.4,1399
37.48,1150
37.56,775
37.64,572
37.72,436
37.8,440
37.88,387
37.96,376
38.04,366
38.12,388
38.2,399
38.28,395
38.36,424
38.44,460
38.52,515
38.6,554
38.68,660
38.76,977
38.84,1667
38.92,2600
39,2356
39.08,1608
39.16,1017
39.24,686
39.32,576
39.4,496
39.48,512
39.56,492
39.64,509
39.72,516
39.8,508
39.88,615
39.96,664
40.04,919
40.12,1295
40.2,2209
40.28,3698
40.36,3765
40.44,2331
40.52,852
40.6,538
40.68,497
40.76,627
40.84,1188
40.92,2420
41,1972
41.08,1300
41.16,1233
41.24,2241
41.32,1793
41.4,1300
41.48,913
41.56,675
41.64,577
41.72,525
41.8,500
41.88,446
41.96,403
42.04,421
42.12,438
42.2,439
42.28,398
42.36,388
42.44,422
42.52,413
42.6,467
42.68,513
42.76,567
42.84,674
42.92,874
43,1315
43.08,1478
43.16,1563
43.24,1755
43.32,1584
43.4,1229
43.48,833
43.56,609
43.64,524
43.72,482
43.8,464
43.88,416
43.96,377
44.04,399
44.12,419
44.2,422
44.28,382
44.36,373
44.44,408
44.52,401
44.6,457
44.68,514
44.76,635
44.84,919
44.92,1196
45,1100
45.08,802
45.16,586
45.24,458
45.32,452
45.4,416
45.48,414
45.56,394
45.64,346
45.72,391
45.8,334
45.88,394
45.96,360
46.04,352
46.12,370
46.2,369
46.28,349
46.36,363
46.44,373
46.52,362
46.6,346
46.68,385
46.76,379
46.84,361
46.92,377
47,356
47.08,344
47.16,358
47.24,380
47.32,380
47.4,358
47.48,376
47.56,397
47.64,394
47.72,383
47.8,358
47.88,372
47.96,384
48.04,375
48.12,359
48.2,394
48.28,385
48.36,366
48.44,384
48.52,365
48.6,357
48.68,378
48.76,397
48.84,388
48.92,349
49,353
49.08,373
49.16,363
49.24,385
49.32,401
49.4,397
49.48,374
49.56,384
49.64,392
49.72,404
49.8,375
49.88,350
49.96,381
50.04,407
50.12,416
50.2,382
50.28,381
50.36,423
50.44,404
50.52,438
50.6,447
50.68,465
50.76,426
50.84,493
50.92,538
51,1233
51.08,1010
51.16,893
51.24,629
51.32,528
51.4,455
51.48,478
51.56,468
51.64,502
51.72,512
51.8,474
51.88,542
51.96,518
52.04,583
52.12,493
52.2,762
52.28,627
52.36,627
52.44,717
52.52,614
52.6,526
52.68,475
52.76,431
52.84,438
52.92,453
53,445
53.08,423
53.16,453
53.24,436
53.32,413
53.4,430
53.48,414
53.56,403
53.64,416
53.72,436
53.8,436
53.88,414
53.96,446
54.04,524
54.12,642
54.2,803
54.28,714
54.36,671
54.44,525
54.52,475
54.6,470
54.68,461
54.76,441
54.84,465
54.92,494
55,525
55.08,584
55.16,665
55.24,693
55.32,768
55.4,1038
55.48,1396
55.56,1290
55.64,1142
55.72,905
55.8,739
55.88,689
55.96,755
56.04,762
56.12,763
56.2,896
56.28,1111
56.36,1446
56.44,1748
56.52,1591
56.6,1345
56.68,1165
56.76,1049
56.84,803
56.92,681
57,627
57.08,594
57.16,586
57.24,558
57.32,518
57.4,480
57.48,515
57.56,527
57.64,565
57.72,716
57.8,884
57.88,831
57.96,759
58.04,652
58.12,538
58.2,451
58.28,431
58.36,434
58.44,409
58.52,443
58.6,423
58.68,466
58.76,454
58.84,514
58.92,643
59,747
59.08,674
59.16,645
59.24,576
59.32,520
59.4,503
59.48,583
59.56,668
59.64,682
59.72,709
59.8,736
59.88,827
59.96,1048
60.04,1006
60.12,889
60.2,715
60.28,586
60.36,553
60.44,551
60.52,675
60.6,752
60.68,736
60.76,680
60.84,669
60.92,668
61,784
61.08,964
61.16,952
61.24,930
61.32,807
61.4,678
61.48,599
61.56,534
61.64,441
61.72,440
61.8,432
61.88,409
61.96,417
62.04,425
62.12,437
62.2,411
62.28,388
62.36,415
62.44,437
62.52,442
62.6,406
62.68,406
62.76,434
62.84,416
62.92,461
63,471
63.08,454
63.16,427
63.24,444
63.32,434
63.4,410
63.48,415
63.56,418
63.64,428
63.72,400
63.8,380
63.88,425
63.96,466
64.04,496
64.12,490
64.2,461
64.28,469
64.36,429
64.44,441
64.52,446
64.6,471
64.68,521
64.76,483
64.84,483
64.92,461
65,413
65.08,413
65.16,417
65.24,404
65.32,388
65.4,427
65.48,423
65.56,409
65.64,436
65.72,431
65.8,449
65.88,498
65.96,530
66.04,554
66.12,569
66.2,689
66.28,979
66.36,1387
66.44,1395
66.52,1175
66.6,1065
66.68,769
66.76,640
66.84,641
66.92,711
67,704
67.08,646
67.16,612
67.24,525
67.32,449
67.4,456
67.48,434
67.56,409
67.64,422
67.72,395
67.8,380
67.88,392
67.96,415
68.04,409
68.12,368
68.2,369
68.28,380
68.36,357
68.44,390
68.52,368
68.6,404
68.68,381
68.76,431
68.84,404
68.92,531
69,544
69.08,595
69.16,409
69.24,484
69.32,574
69.4,489
69.48,546
69.56,420
69.64,419
69.72,357
69.8,486
69.88,468
69.96,485
70.04,355
70.12,428
70.2,456
70.28,500
70.36,432
70.44,471
70.52,523
70.6,566
70.68,627
70.76,473
70.84,486
70.92,415
71,422
71.08,409
71.16,382
71.24,393
71.32,399
71.4,387
71.48,372
71.56,412
71.64,411
71.72,399
71.8,424
71.88,416
71.96,424
72.04,476
72.12,575
72.2,739
72.28,959
72.36,1000
72.44,925
72.52,890
72.6,778
72.68,672
72.76,598
72.84,512
72.92,561
73,670
73.08,585
73.16,682
73.24,631
73.32,742
73.4,729
73.48,674
73.56,697
73.64,598
73.72,655
73.8,577
73.88,505
73.96,581
74.04,544
74.12,482
74.2,495
74.28,454
74.36,530
74.44,648
74.52,512
74.6,733
74.68,564
74.76,575
74.84,689
74.92,565
75,512
75.08,507
75.16,607
75.24,590
75.32,581
75.4,634
75.48,732
75.56,775
75.64,695
75.72,717
75.8,535
75.88,457
75.96,436
76.04,422
76.12,403
76.2,423
76.28,459
76.36,518
76.44,510
76.52,464
76.6,501
76.68,547
76.76,581
76.84,543
76.92,533
77,628
77.08,718
77.16,779
77.24,684
77.32,640
77.4,605
77.48,508
77.56,499
77.64,454
77.72,521
77.8,594
77.88,618
77.96,627
78.04,609
78.12,559
78.2,536
78.28,498
78.36,473
78.44,429
78.52,396
78.6,433
78.68,473
78.76,468
78.84,416
78.92,404
79,426
79.08,448
79.16,493
79.24,717
79.32,807
79.4,896
79.48,1031
79.56,896
79.64,1210
79.72,1165
79.8,919
79.88,941
79.96,583
80.04,471
80.12,495
80.2,384
80.28,336
80.36,333
80.44,301
80.52,389
80.6,344
80.68,373
80.76,403
80.84,359
80.92,362
81,306
81.08,427
81.16,336
81.24,292
81.32,383
81.4,400
81.48,437
81.56,332
81.64,468
81.72,532
81.8,602
81.88,507
81.96,539
82.04,603
82.12,537
82.2,417
82.28,372
82.36,481
82.44,400
82.52,407
82.6,342
82.68,350
82.76,327
82.84,314
82.92,359
83,353
83.08,329
83.16,360
83.24,335
83.32,373
83.4,362
83.48,347
83.56,341
83.64,356
83.72,353
83.8,319
83.88,346
83.96,353
84.04,366
84.12,338
84.2,333
84.28,353
84.36,318
84.44,369
84.52,336
84.6,336
84.68,331
84.76,351
84.84,354
84.92,318
85,353
85.08,332
85.16,370
85.24,353
85.32,408
85.4,425
85.48,431
85.56,429
85.64,440
85.72,428
85.8,384
85.88,402
85.96,397
86.04,404
86.12,378
86.2,376
86.28,389
86.36,346
86.44,402
86.52,384
86.6,406
86.68,449
86.76,557
86.84,625
86.92,568
87,535
87.08,535
87.16,513
87.24,431
87.32,370
87.4,383
87.48,402
87.56,410
87.64,371
87.72,371
87.8,398
87.88,348
87.96,366
88.04,352
88.12,408
88.2,409
88.28,434
88.36,439
88.44,415
88.52,494
88.6,464
88.68,515
88.76,461
88.84,418
88.92,417
89,403
89.08,403
89.16,424
89.24,484
89.32,487
89.4,538
89.48,547
89.56,552
89.64,542
89.72,619
89.8,693
89.88,570
89.96,630
90.04,661
90.12,631
90.2,650
90.28,697
90.36,632
90.44,600
90.52,622
90.6,582
90.68,551
90.76,573
90.84,583
90.92,445
91,410
91.08,466
91.16,422
91.24,439
91.32,379
91.4,359
91.48,373
91.56,404
91.64,373
91.72,338
91.8,394
91.88,333
91.96,362
92.04,331
92.12,330
92.2,314
92.28,269
92.36,359
92.44,336
92.52,224
92.6,157
92.68,448
92.76,314
92.84,269
92.92,403
93,403
93.08,359
93.16,440
93.24,421
93.32,458
93.4,455
93.48,491
93.56,486
93.64,471
93.72,473
93.8,446
93.88,466
93.96,403
94.04,416
94.12,418
94.2,417
94.28,436
94.36,437
94.44,418
94.52,426
94.6,434
94.68,451
94.76,437
94.84,446
94.92,525
95,572
95.08,556
95.16,486
95.24,461
95.32,473
95.4,423
95.48,424
95.56,407
95.64,392
95.72,396
95.8,373
95.88,402
95.96,350
96.04,365
96.12,347
96.2,394
96.28,386
96.36,402
96.44,396
96.52,361
96.6,418
96.68,375
96.76,449
96.84,437
96.92,459
97,489
97.08,473
97.16,437
97.24,449
97.32,458
97.4,440
97.48,422
97.56,471
97.64,479
97.72,461
97.8,494
97.88,555
97.96,484
98.04,455
98.12,532
98.2,402
98.28,519
98.36,557
98.44,417
98.52,476
98.6,386
98.68,383
98.76,440
98.84,407
98.92,360
99,374
99.08,433
99.16,478
99.24,358
99.32,434
99.4,435
99.48,435
99.56,436
99.64,498
99.72,426
99.8,493
99.88,503
99.96,497
100.04,550
100.12,539
100.2,585
100.28,579
100.36,582
100.44,545
100.52,477
100.6,507
100.68,437
100.76,483
100.84,443
100.92,419
101,447
101.08,473
101.16,487
101.24,440
101.32,470
101.4,471
101.48,508
101.56,552
101.64,549
101.72,524
101.8,483
101.88,507
101.96,452
102.04,452
102.12,417
102.2,451
102.28,435
102.36,445
102.44,434
102.52,393
102.6,444
102.68,392
102.76,455
102.84,423
102.92,399
103,421
103.08,439
103.16,451
103.24,404
103.32,427
103.4,410
103.48,420
103.56,440
103.64,445
103.72,436
103.8,467
103.88,488
103.96,476
104.04,457
104.12,499
104.2,507
104.28,502
104.36,518
104.44,486
104.52,462
104.6,483
104.68,463
104.76,500
104.84,477
104.92,517
105,509
105.08,500
105.16,496
105.24,503
105.32,489
105.4,449
105.48,476
105.56,493
105.64,556
105.72,488
105.8,541
105.88,575
105.96,677
106.04,555
106.12,451
106.2,486
106.28,520
106.36,416
106.44,433
106.52,433
106.6,442
106.68,419
106.76,423
106.84,453
106.92,472
107,446
107.08,427
107.16,506
107.24,496
107.32,468
107.4,440
107.48,428
107.56,401
107.64,417
107.72,435
107.8,452
107.88,539
107.96,462
108.04,462
108.12,418
108.2,459
108.28,451
108.36,459
108.44,416
108.52,415
108.6,424
108.68,510
108.76,420
108.84,459
108.92,494
109,568
109.08,577
109.16,464
109.24,501
109.32,581
109.4,582
109.48,481
109.56,425
109.64,458
109.72,458
109.8,458
109.88,459
109.96,495
110.04,569
110.12,505
110.2,529
110.28,518
110.36,551
110.44,510
110.52,599
110.6,518
110.68,461
110.76,486
110.84,481
110.92,486
111,502
111.08,642
111.16,505
111.24,608
111.32,607
111.4,507
111.48,526
111.56,441
111.64,511
111.72,439
111.8,452
111.88,464
111.96,474
112.04,564
112.12,556
112.2,674
112.28,694
112.36,677
112.44,617
112.52,597
112.6,623
112.68,555
112.76,628
112.84,533
112.92,514
113,493
113.08,470
113.16,523
113.24,464
113.32,444
113.4,450
113.48,483
113.56,563
113.64,577
113.72,501
113.8,536
113.88,500
113.96,550
114.04,557
114.12,480
114.2,529
114.28,424
114.36,456
114.44,455
114.52,419
114.6,486
114.68,470
114.76,462
114.84,482
114.92,476
115,541
115.08,579
115.16,589
115.24,542
115.32,545
115.4,530
115.48,559
115.56,597
115.64,523
115.72,516
115.8,573
115.88,573
115.96,555
116.04,553
116.12,547
116.2,444
116.28,487
116.36,505
116.44,489
116.52,569
116.6,556
116.68,542
116.76,550
116.84,522
116.92,558
117,564
117.08,550
117.16,497
117.24,501
117.32,481
117.4,508
117.48,564
117.56,527
117.64,553
117.72,617
117.8,601
117.88,569
117.96,573
118.04,590
118.12,508
118.2,550
118.28,540
118.36,483
118.44,531
118.52,501
118.6,483
118.68,492
118.76,467
118.84,523
118.92,539
119,503
119.08,416
119.16,417
119.24,417
119.32,468
119.4,484
119.48,431
119.56,378
119.64,481
119.72,473
119.8,480
119.88,410
119.96,478
120.02,399