File: data/xrd_icdd_PDF/00-066-0336 (PD3).csv
4.9978,4231
5.09885,3718
5.1999,3292
5.30095,3006
5.40201,2841
5.50306,2457
5.60411,2366
5.70516,2137
5.80621,2051
5.90726,1966
6.00831,1789
6.10937,1634
6.21042,1606
6.31147,1567
6.41252,1458
6.51357,1407
6.61462,1270
6.71568,1309
6.81673,1252
6.91778,1154
7.01883,1167
7.11988,1106
7.22093,1119
7.32198,1084
7.42304,1044
7.52409,1026
7.62514,933
7.72619,943
7.82724,957
7.92829,948
8.02934,949
8.1304,901
8.23145,929
8.3325,909
8.43355,823
8.5346,858
8.63565,859
8.73671,790
8.83776,779
8.93881,852
9.03986,855
9.14091,826
9.24196,805
9.34301,809
9.44407,797
9.54512,803
9.64617,772
9.74722,818
9.84827,765
9.94932,753
10.05038,819
10.15143,722
10.25248,779
10.35353,718
10.45458,771
10.55563,722
10.65668,736
10.75774,743
10.85879,683
10.95984,782
11.06089,749
11.16194,764
11.26299,713
11.36404,755
11.4651,802
11.56615,760
11.6672,788
11.76825,782
11.8693,732
11.97035,785
12.07141,772
12.17246,761
12.27351,776
12.37456,727
12.47561,763
12.57666,720
12.67771,726
12.77877,670
12.87982,769
12.98087,707
13.08192,718
13.18297,742
13.28402,759
13.38507,773
13.48613,750
13.58718,733
13.68823,719
13.78928,772
13.89033,725
13.99138,698
14.09244,759
14.19349,727
14.29454,699
14.39559,758
14.49664,702
14.59769,688
14.69874,687
14.7998,743
14.90085,729
15.0019,731
15.10295,696
15.204,783
15.30505,653
15.4061,692
15.50716,638
15.60821,592
15.70926,630
15.81031,654
15.91136,623
16.01241,695
16.11347,673
16.21452,687
16.31557,705
16.41662,668
16.51767,671
16.61872,682
16.71977,681
16.82083,727
16.92188,706
17.02293,701
17.12398,663
17.22503,669
17.32608,661
17.42713,655
17.52819,632
17.62924,668
17.73029,612
17.83134,661
17.93239,639
18.03344,654
18.1345,622
18.23555,656
18.3366,700
18.43765,586
18.5387,623
18.63975,618
18.7408,604
18.84186,633
18.94291,629
19.04396,662
19.14501,628
19.24606,645
19.34711,712
19.44816,700
19.54922,632
19.65027,692
19.75132,671
19.85237,695
19.95342,684
20.05447,705
20.15553,635
20.25658,696
20.35763,707
20.45868,758
20.55973,665
20.66078,726
20.76183,683
20.86289,759
20.96394,758
21.06499,819
21.16604,1046
21.26709,1458
21.36814,2261
21.46919,2554
21.57025,2142
21.6713,1679
21.77235,1201
21.8734,1011
21.97445,982
22.0755,898
22.17656,892
22.27761,937
22.37866,1079
22.47971,1453
22.58076,2668
22.68181,5734
22.78286,4532
22.88392,1715
22.98497,964
23.08602,792
23.18707,698
23.28812,655
23.38917,662
23.49022,623
23.59128,584
23.69233,607
23.79338,624
23.89443,632
23.99548,648
24.09653,628
24.19759,608
24.29864,640
24.39969,598
24.50074,582
24.60179,591
24.70284,547
24.80389,619
24.90495,596
25.006,619
25.10705,618
25.2081,564
25.30915,613
25.4102,624
25.51125,558
25.61231,590
25.71336,568
25.81441,578
25.91546,575
26.01651,560
26.11756,581
26.21861,534
26.31967,587
26.42072,576
26.52177,529
26.62282,595
26.72387,564
26.82492,597
26.92598,529
27.02703,599
27.12808,567
27.22913,497
27.33018,577
27.43123,575
27.53228,519
27.63334,570
27.73439,581
27.83544,580
27.93649,609
28.03754,602
28.13859,615
28.23964,641
28.3407,723
28.44175,661
28.5428,630
28.64385,612
28.7449,608
28.84595,690
28.94701,633
29.04806,621
29.14911,676
29.25016,571
29.35121,565
29.45226,501
29.55331,555
29.65437,586
29.75542,621
29.85647,595
29.95752,618
30.05857,599
30.15962,626
30.26067,626
30.36173,684
30.46278,702
30.56383,679
30.66488,726
30.76593,801
30.86698,934
30.96804,1005
31.06909,1275
31.17014,2031
31.27119,4095
31.37224,9432
31.47329,13079
31.57434,9504
31.6754,5108
31.77645,2890
31.8775,1988
31.97855,1837
32.0796,2076
32.18065,3197
32.28171,5666
32.38276,6715
32.48381,3486
32.58486,1535
32.68591,1000
32.78696,822
32.88801,675
32.98907,670
33.09012,682
33.19117,673
33.29222,651
33.39327,629
33.49432,601
33.59537,664
33.69643,633
33.79748,583
33.89853,564
33.99958,513
34.10063,584
34.20168,568
34.30273,551
34.40379,576
34.50484,570
34.60589,584
34.70694,555
34.80799,582
34.90904,579
35.0101,595
35.11115,554
35.2122,644
35.31325,692
35.4143,555
35.51535,558
35.6164,539
35.71746,530
35.81851,573
35.91956,582
36.02061,532
36.12166,568
36.22271,545
36.32377,504
36.42482,511
36.52587,515
36.62692,508
36.72797,519
36.82902,511
36.93007,535
37.03113,486
37.13218,484
37.23323,500
37.33428,510
37.43533,486
37.53638,536
37.63743,512
37.73849,539
37.83954,484
37.94059,500
38.04164,536
38.14269,524
38.24374,552
38.34479,559
38.44585,578
38.5469,568
38.64795,613
38.749,741
38.85005,889
38.9511,1435
39.05216,3168
39.15321,5480
39.25426,4556
39.35531,2462
39.45636,1278
39.55741,886
39.65846,719
39.75952,607
39.86057,621
39.96162,526
40.06267,540
40.16372,532
40.26477,502
40.36583,523
40.46688,506
40.56793,495
40.66898,507
40.77003,503
40.87108,522
40.97213,529
41.07319,473
41.17424,477
41.27529,514
41.37634,508
41.47739,488
41.57844,497
41.67949,522
41.78055,522
41.8816,503
41.98265,457
42.0837,481
42.18475,533
42.2858,479
42.38685,469
42.48791,490
42.58896,520
42.69001,526
42.79106,516
42.89211,552
42.99316,519
43.09422,541
43.19527,555
43.29632,664
43.39737,721
43.49842,866
43.59947,1062
43.70052,1102
43.80158,1109
43.90263,1103
44.00368,1011
44.10473,936
44.20578,808
44.30683,676
44.40789,678
44.50894,601
44.60999,606
44.71104,553
44.81209,552
44.91314,571
45.01419,523
45.11525,526
45.2163,490
45.31735,562
45.4184,576
45.51945,510
45.6205,529
45.72155,562
45.82261,637
45.92366,696
46.02471,846
46.12576,1053
46.22681,1752
46.32786,2836
46.42892,3493
46.52997,2763
46.63102,1693
46.73207,958
46.83312,690
46.93417,603
47.03522,537
47.13628,523
47.23733,530
47.33838,496
47.43943,526
47.54048,487
47.64153,481
47.74258,544
47.84364,487
47.94469,472
48.04574,463
48.14679,425
48.24784,479
48.34889,497
48.44994,452
48.551,459
48.65205,471
48.7531,505
48.85415,506
48.9552,493
49.05625,530
49.15731,559
49.25836,582
49.35941,610
49.46046,694
49.56151,809
49.66256,966
49.76361,1082
49.86467,1160
49.96572,1101
50.06677,1008
50.16782,894
50.26887,779
50.36992,757
50.47098,668
50.57203,632
50.67308,612
50.77413,550
50.87518,545
50.97623,577
51.07728,577
51.17834,583
51.27939,621
51.38044,692
51.48149,889
51.58254,1177
51.68359,1401
51.78464,1334
51.8857,1121
51.98675,903
52.0878,973
52.18885,1139
52.2899,1310
52.39095,1071
52.492,819
52.59306,648
52.69411,547
52.79516,479
52.89621,501
52.99726,472
53.09831,465
53.19937,501
53.30042,492
53.40147,503
53.50252,535
53.60357,498
53.70462,467
53.80567,486
53.90673,470
54.00778,508
54.10883,500
54.20988,514
54.31093,476
54.41198,501
54.51304,517
54.61409,527
54.71514,516
54.81619,563
54.91724,669
55.01829,720
55.11934,884
55.2204,1173
55.32145,1514
55.4225,1698
55.52355,1770
55.6246,1596
55.72565,1422
55.8267,1217
55.92776,958
56.02881,859
56.12986,756
56.23091,699
56.33196,707
56.43301,673
56.53406,698
56.63512,780
56.73617,876
56.83722,1157
56.93827,1748
57.03932,2708
57.14037,3840
57.24143,3667
57.34248,2735
57.44353,1725
57.54458,1087
57.64563,803
57.74668,679
57.84773,560
57.94879,520
58.04984,501
58.15089,509
58.25194,498
58.35299,496
58.45404,489
58.5551,480
58.65615,521
58.7572,457
58.85825,443
58.9593,458
59.06035,471
59.1614,478
59.26246,457
59.36351,465
59.46456,439
59.56561,441
59.66666,479
59.76771,498
59.86876,424
59.96982,477
60.07087,467
60.17192,518
60.27297,474
60.37402,482
60.47507,432
60.57612,428
60.67718,424
60.77823,441
60.87928,453
60.98033,427
61.08138,458
61.18243,447
61.28349,410
61.38454,423
61.48559,455
61.58664,465
61.68769,469
61.78874,407
61.88979,438
61.99085,450
62.0919,460
62.19295,455
62.294,415
62.39505,450
62.4961,423
62.59716,450
62.69821,429
62.79926,454
62.90031,419
63.00136,417
63.10241,427
63.20346,443
63.30452,451
63.40557,427
63.50662,455
63.60767,440
63.70872,436
63.80977,450
63.91082,428
64.01188,434
64.11293,440
64.21398,440
64.31503,471
64.41608,445
64.51713,465
64.61818,445
64.71924,447
64.82029,412
64.92134,509
65.02239,502
65.12344,551
65.22449,583
65.32555,649
65.4266,829
65.52765,1057
65.6287,1244
65.72975,1256
65.8308,1184
65.93185,1031
66.03291,951
66.13396,787
66.23501,667
66.33606,617
66.43711,554
66.53816,558
66.63921,494
66.74027,508
66.84132,500
66.94237,475
67.04342,508
67.14447,551
67.24552,538
67.34658,573
67.44763,676
67.54868,823
67.64973,935
67.75078,1081
67.85183,1030
67.95288,907
68.05394,744
68.15499,650
68.25604,557
68.35709,536
68.45814,498
68.55919,463
68.66025,505
68.7613,472
68.86235,464
68.9634,488
69.06445,464
69.1655,473
69.26655,438
69.36761,433
69.46866,418
69.56971,461
69.67076,481
69.77181,498
69.87286,497
69.97391,509
70.07497,557
70.17602,584
70.27707,717
70.37812,854
70.47917,938
70.58022,934
70.68127,869
70.78233,775
70.88338,720
70.98443,645
71.08548,575
71.18653,534
71.28758,582
71.38864,509
71.48969,527
71.59074,548
71.69179,562
71.79284,652
71.89389,699
71.99494,771
72.096,777
72.19705,789
72.2981,780
72.39915,857
72.5002,808
72.60125,875
72.7023,805
72.80336,784
72.90441,734
73.00546,721
73.10651,679
73.20756,670
73.30861,650
73.40967,622
73.51072,591
73.61177,554
73.71282,469
73.81387,505
73.91492,512
74.01597,512
74.11703,457
74.21808,490
74.31913,470
74.42018,480
74.52123,459
74.62228,473
74.72334,452
74.82439,462
74.92544,429
75.02649,420
75.12754,460
75.22859,413
75.32964,440
75.4307,439
75.53175,492
75.6328,444
75.73385,440
75.8349,461
75.93595,455
76.037,543
76.13806,554
76.23911,589
76.34016,691
76.44121,805
76.54226,1010
76.64331,1050
76.74437,1046
76.84542,1100
76.94647,1071
77.04752,1082
77.14857,1099
77.24962,985
77.35067,833
77.45173,782
77.55278,673
77.65383,618
77.75488,585
77.85593,532
77.95698,531
78.05803,517
78.15909,484
78.26014,464
78.36119,413
78.46224,455
78.56329,455
78.66434,409
78.76539,429
78.86645,433
78.9675,414
79.06855,435
79.1696,441
79.27065,429
79.3717,448
79.47276,428
79.57381,425
79.67486,428
79.77591,463
79.87696,474
79.97801,421
80.07906,447
80.18012,458
80.28117,515
80.38222,470
80.48327,471
80.58432,479
80.68537,487
80.78642,560
80.88748,611
80.98853,773
81.08958,853
81.19063,909
81.29168,833
81.39273,764
81.49379,662
81.59484,578
81.69589,502
81.79694,515
81.89799,515
81.99904,449
82.10009,489
82.20115,451
82.3022,426
82.40325,460
82.5043,430
82.60535,431
82.7064,428
82.80746,440
82.90851,407
83.00956,425
83.11061,401
83.21166,452
83.31271,457
83.41376,454
83.51482,459
83.61587,489
83.71692,509
83.81797,549
83.91902,556
84.02007,658
84.12112,715
84.22218,832
84.32323,836
84.42428,762
84.52533,748
84.62638,666
84.72743,587
84.82849,518
84.92954,514
85.03059,508
85.13164,457
85.23269,474
85.33374,437
85.43479,474
85.53585,468
85.6369,426
85.73795,435
85.839,463
85.94005,457
86.0411,518
86.14215,481
86.24321,518
86.34426,531
86.44531,541
86.54636,512
86.64741,451
86.74846,488
86.84951,525
86.95057,519
87.05162,486
87.15267,440
87.25372,460
87.35477,491
87.45582,455
87.55688,412
87.65793,427
87.75898,439
87.86003,436
87.96108,432
88.06213,430
88.16318,522
88.26424,481
88.36529,466
88.46634,528
88.56739,527
88.66844,523
88.76949,516
88.87055,545
88.9716,488
89.07265,485
89.1737,481
89.27475,482
89.3758,476
89.47685,432
89.57791,467
89.67896,478
89.78001,490
89.88106,474
89.98211,535
90.08316,487
90.18421,523
90.28527,647
90.38632,717
90.48737,740
90.58842,807
90.68947,849
90.79052,842
90.89158,830
90.99263,864
91.09368,782
91.19473,783
91.29578,674
91.39683,634
91.49788,601
91.59894,613
91.69999,543
91.80104,541
91.90209,541
92.00314,528
92.10419,504
92.20524,529
92.3063,549
92.40735,514
92.5084,519
92.60945,543
92.7105,608
92.81155,639
92.9126,732
93.01366,867
93.11471,944
93.21576,908
93.31681,917
93.41786,807
93.51891,751
93.61997,757
93.72102,645
93.82207,603
93.92312,623
94.02417,614
94.12522,667
94.22627,702
94.32733,761
94.42838,874
94.52943,914
94.63048,912
94.73153,879
94.83258,808
94.93363,755
95.03469,649
95.13574,543
95.23679,507
95.33784,518
95.43889,483
95.53994,463
95.641,458
95.74205,413
95.8431,461
95.94415,468
96.0452,438
96.14625,472
96.2473,451
96.34836,485
96.44941,459
96.55046,467
96.65151,424
96.75256,445
96.85361,445
96.95467,471
97.05572,449
97.15677,433
97.25782,426
97.35887,456
97.45992,428
97.56097,452
97.66203,413
97.76308,439
97.86413,425
97.96518,410
98.06623,433
98.16728,465
98.26833,480
98.36939,397
98.47044,441
98.57149,411
98.67254,443
98.77359,419
98.87464,428
98.9757,441
99.07675,436
99.1778,456
99.27885,436
99.3799,437
99.48095,449
99.582,451
99.68306,427
99.78411,438
99.88516,410
99.98621,439
100.087,439
100.188,428
100.289,426
100.39,490
100.491,419
100.593,434
100.694,489
100.795,476
100.896,472
100.997,513
101.098,534
101.199,468
101.3,487
101.401,501
101.502,497
101.603,474
101.704,448
101.805,451
101.906,484
102.007,478
102.108,470
102.209,468
102.31,453
102.411,470
102.5125,442
102.614,442
102.7146,425
102.816,476
102.9167,472
103.018,424
103.119,463
103.22,487
103.321,477
103.422,486
103.523,521
103.624,483
103.725,528
103.826,572
103.927,612
104.028,657
104.129,645
104.23,613
104.331,605
104.432,579
104.534,606
104.635,612
104.736,572
104.837,568
104.938,542
105.039,576
105.14,549
105.241,568
105.342,537
105.443,553
105.544,586
105.645,554
105.746,526
105.8472,539
105.948,533
106.0493,518
106.15,552
106.2514,592
106.352,578
106.454,606
106.555,642
106.656,620
106.757,614
106.858,606
106.959,607
107.06,591
107.161,598
107.262,528
107.363,546
107.464,500
107.565,526
107.666,503
107.767,507
107.868,496
107.969,545
108.07,534
108.171,581
108.272,572
108.373,595
108.475,571
108.576,611
108.677,610
108.778,643
108.879,655
108.98,656
109.081,627
109.1819,577
109.283,651
109.384,611
109.485,548
109.5861,547
109.687,575
109.788,527
109.889,500
109.99,507
110.091,492
110.192,484
110.293,470
110.395,479
110.496,493
110.597,452
110.698,490
110.799,471
110.9,477
111.001,446
111.102,461
111.203,445
111.304,449
111.405,464
111.506,469
111.607,514
111.708,500
111.809,482
111.91,520
112.011,507
112.112,508
112.213,510
112.314,535
112.416,537
112.5166,566
112.618,645
112.7187,695
112.82,713
112.9208,761
113.022,819
113.123,845
113.224,865
113.325,827
113.426,844
113.527,759
113.628,786
113.729,698
113.83,730
113.931,681
114.032,671
114.133,632
114.234,608
114.336,649
114.437,570
114.538,548
114.639,547
114.74,559
114.841,573
114.942,570
115.043,535
115.144,510
115.245,545
115.346,531
115.447,536
115.548,506
115.649,492
115.75,556
115.8513,489
115.952,510
116.0534,524
116.154,482
116.2555,488
116.357,464
116.4576,477
116.559,515
116.66,482
116.761,563
116.862,507
116.963,479
117.064,481
117.165,496
117.266,504
117.367,479
117.468,503
117.569,491
117.67,484
117.771,513
117.872,548
117.973,546
118.074,546
118.175,533
118.277,539
118.378,544
118.479,570
118.58,519
118.681,535
118.782,492
118.883,503
118.984,506
119.085,485
119.186,490
119.287,515
119.3881,520
119.489,522
119.5902,550
119.691,538
119.7923,528
119.893,580
119.994,598
120.095,543
120.197,539
120.298,593
120.399,586
120.5,541
120.601,550
120.702,611
120.803,584
120.904,603
121.005,630
121.106,615
121.207,668
121.308,635
121.409,636
121.51,675
121.611,689
121.712,645
121.813,587
121.914,630
122.015,604
122.116,585
122.218,593
122.319,539
122.42,544
122.521,523
122.622,539
122.7228,532
122.824,534
122.9249,558
123.026,573
123.127,579
123.228,568
123.329,583
123.43,672
123.531,615
123.632,621
123.733,659
123.834,636
123.935,600
124.036,644
124.138,624
124.239,554
124.34,609
124.441,575
124.542,530
124.643,541
124.744,522
124.845,523
124.946,508
125.047,477
125.148,540
125.249,460
125.35,492
125.451,490
125.552,521
125.653,481
125.754,514
125.855,463
125.956,508
126.0575,515
126.159,503
126.2596,503
126.361,555
126.4617,541
126.563,573
126.664,557
126.765,617
126.866,593
126.967,601
127.068,602
127.169,563
127.27,581
127.371,567
127.472,600
127.573,557
127.674,561
127.775,529
127.876,540
127.977,555
128.079,542
128.18,579
128.281,621
128.382,539
128.483,610
128.584,614
128.685,654
128.786,663
128.887,667
128.988,682
129.089,679
129.19,725
129.291,691
129.3922,681
129.493,684
129.5943,729
129.695,677
129.7964,734
129.897,644
129.9783,676