File: data/xrd_icdd_PDF/00-058-0342 (PD3).csv
10,1850
10.06,1866
10.12,1873
10.18,1853
10.24,1947
10.3,1857
10.36,1920
10.42,1891
10.48,1850
10.54,1874
10.6,1845
10.66,1865
10.72,1860
10.78,1882
10.84,1853
10.9,1930
10.96,1916
11.02,1991
11.08,2204
11.14,2081
11.2,1955
11.26,1800
11.32,1826
11.38,1862
11.44,1824
11.5,1851
11.56,1819
11.62,1795
11.68,1892
11.74,1740
11.8,1786
11.86,1763
11.92,1746
11.98,1770
12.04,1796
12.1,1796
12.16,1792
12.22,1895
12.28,1752
12.34,1796
12.4,1704
12.46,1812
12.52,1722
12.58,1793
12.64,1750
12.7,1739
12.76,1695
12.82,1697
12.88,1716
12.94,1822
13,1700
13.06,1699
13.12,1769
13.18,1761
13.24,1778
13.3,1845
13.36,1748
13.42,1764
13.48,1761
13.54,1743
13.6,1805
13.66,1868
13.72,1695
13.78,1655
13.84,1710
13.9,1687
13.96,1657
14.02,1683
14.08,1744
14.14,1727
14.2,1622
14.26,1714
14.32,1797
14.38,1670
14.44,1693
14.5,1716
14.56,1632
14.62,1638
14.68,1638
14.74,1735
14.8,1675
14.86,1746
14.92,1618
14.98,1601
15.04,1662
15.1,1664
15.16,1642
15.22,1642
15.28,1701
15.34,1644
15.4,1649
15.46,1667
15.52,1683
15.58,1644
15.64,1638
15.7,1540
15.76,1665
15.82,1622
15.88,1617
15.94,1638
16,1605
16.06,1637
16.12,1730
16.18,1588
16.24,1591
16.3,1632
16.36,1671
16.42,1650
16.48,1616
16.54,1683
16.6,1820
16.66,2124
16.72,2441
16.78,1898
16.84,1698
16.9,1588
16.96,1599
17.02,1647
17.08,1645
17.14,1605
17.2,1532
17.26,1546
17.32,1594
17.38,1640
17.44,1563
17.5,1611
17.56,1576
17.62,1603
17.68,1634
17.74,1616
17.8,1581
17.86,1601
17.92,1583
17.98,1608
18.04,1618
18.1,1596
18.16,1554
18.22,1631
18.28,1537
18.34,1570
18.4,1495
18.46,1505
18.52,1561
18.58,1565
18.64,1521
18.7,1536
18.76,1551
18.82,1537
18.88,1548
18.94,1507
19,1560
19.06,1590
19.12,1615
19.18,1536
19.24,1573
19.3,1541
19.36,1453
19.42,1528
19.48,1496
19.54,1501
19.6,1476
19.66,1509
19.72,1545
19.78,1510
19.84,1577
19.9,1461
19.96,1512
20.02,1532
20.08,1531
20.14,1528
20.2,1505
20.26,1494
20.32,1485
20.38,1555
20.44,1511
20.5,1507
20.56,1494
20.62,1537
20.68,1582
20.74,1756
20.8,2032
20.86,2618
20.92,2074
20.98,1630
21.04,1494
21.1,1533
21.16,1507
21.22,1493
21.28,1537
21.34,1463
21.4,1441
21.46,1475
21.52,1525
21.58,1540
21.64,1893
21.7,2899
21.76,4983
21.82,3886
21.88,1975
21.94,1577
22,1558
22.06,1563
22.12,1513
22.18,1534
22.24,1759
22.3,1788
22.36,1608
22.42,1444
22.48,1482
22.54,1400
22.6,1457
22.66,1462
22.72,1382
22.78,1447
22.84,1421
22.9,1405
22.96,1400
23.02,1403
23.08,1375
23.14,1448
23.2,1398
23.26,1449
23.32,1452
23.38,1404
23.44,1451
23.5,1337
23.56,1388
23.62,1425
23.68,1416
23.74,1418
23.8,1354
23.86,1407
23.92,1384
23.98,1373
24.04,1367
24.1,1380
24.16,1391
24.22,1417
24.28,1322
24.34,1344
24.4,1370
24.46,1314
24.52,1367
24.58,1329
24.64,1362
24.7,1362
24.76,1326
24.82,1330
24.88,1435
24.94,1494
25,1859
25.06,2419
25.12,2277
25.18,1940
25.24,1497
25.3,1373
25.36,1489
25.42,1405
25.48,1593
25.54,1874
25.6,2862
25.66,3421
25.72,3241
25.78,1873
25.84,1540
25.9,1417
25.96,1403
26.02,1284
26.08,1316
26.14,1418
26.2,1381
26.26,1294
26.32,1342
26.38,1330
26.44,1329
26.5,1313
26.56,1295
26.62,1431
26.68,1386
26.74,1428
26.8,1497
26.86,1744
26.92,2880
26.98,3501
27.04,2030
27.1,1506
27.16,1465
27.22,1433
27.28,1424
27.34,1594
27.4,2039
27.46,3171
27.52,2910
27.58,1757
27.64,1441
27.7,1418
27.76,1395
27.82,1399
27.88,1337
27.94,1313
28,1256
28.06,1311
28.12,1320
28.18,1205
28.24,1310
28.3,1358
28.36,1307
28.42,1290
28.48,1274
28.54,1256
28.6,1269
28.66,1284
28.72,1244
28.78,1240
28.84,1263
28.9,1223
28.96,1278
29.02,1246
29.08,1255
29.14,1256
29.2,1194
29.26,1244
29.32,1308
29.38,1295
29.44,1282
29.5,1318
29.56,1348
29.62,1440
29.68,1754
29.74,2974
29.8,4862
29.86,2874
29.92,1762
29.98,1461
30.04,1409
30.1,1440
30.16,1754
30.22,2258
30.28,2287
30.34,1570
30.4,1384
30.46,1271
30.52,1417
30.58,1352
30.64,1665
30.7,2294
30.76,1737
30.82,1424
30.88,1264
30.94,1164
31,1216
31.06,1250
31.12,1190
31.18,1225
31.24,1227
31.3,1140
31.36,1248
31.42,1113
31.48,1197
31.54,1232
31.6,1227
31.66,1187
31.72,1216
31.78,1247
31.84,1222
31.9,1245
31.96,1199
32.02,1152
32.08,1174
32.14,1227
32.2,1169
32.26,1215
32.32,1141
32.38,1192
32.44,1172
32.5,1236
32.56,1216
32.62,1164
32.68,1209
32.74,1340
32.8,1549
32.86,2329
32.92,4792
32.98,5167
33.04,2370
33.1,1683
33.16,1701
33.22,1990
33.28,3015
33.34,7069
33.4,9677
33.46,7153
33.52,3141
33.58,2100
33.64,2452
33.7,3115
33.76,3001
33.82,2336
33.88,1530
33.94,1314
34,1177
34.06,1240
34.12,1164
34.18,1149
34.24,1158
34.3,1172
34.36,1129
34.42,1106
34.48,1154
34.54,1203
34.6,1167
34.66,1184
34.72,1274
34.78,1454
34.84,2241
34.9,2193
34.96,1750
35.02,1635
35.08,1809
35.14,2786
35.2,6907
35.26,9055
35.32,4179
35.38,2068
35.44,1522
35.5,1319
35.56,1256
35.62,1181
35.68,1178
35.74,1141
35.8,1210
35.86,1208
35.92,1256
35.98,1473
36.04,2007
36.1,1709
36.16,1188
36.22,1145
36.28,1138
36.34,1129
36.4,1120
36.46,1145
36.52,1220
36.58,1248
36.64,1232
36.7,1170
36.76,1284
36.82,1280
36.88,1381
36.94,1615
37,2243
37.06,4702
37.12,11564
37.18,9507
37.24,3307
37.3,1940
37.36,1600
37.42,1486
37.48,1811
37.54,1834
37.6,1391
37.66,1303
37.72,1317
37.78,1464
37.84,2293
37.9,2976
37.96,1837
38.02,1312
38.08,1240
38.14,1217
38.2,1167
38.26,1212
38.32,1337
38.38,1785
38.44,2123
38.5,1470
38.56,1224
38.62,1106
38.68,1105
38.74,1060
38.8,1072
38.86,1084
38.92,1066
38.98,1071
39.04,1083
39.1,1129
39.16,1096
39.22,1030
39.28,1017
39.34,1042
39.4,1024
39.46,1051
39.52,1032
39.58,1113
39.64,1051
39.7,1092
39.76,1061
39.82,1063
39.88,1085
39.94,1077
40,1041
40.06,1066
40.12,1103
40.18,1106
40.24,1119
40.3,1055
40.36,1002
40.42,1061
40.48,1081
40.54,1036
40.6,1055
40.66,1073
40.72,1060
40.78,1017
40.84,1056
40.9,1044
40.96,1047
41.02,1074
41.08,1050
41.14,1105
41.2,1089
41.26,1055
41.32,1114
41.38,1106
41.44,1142
41.5,1196
41.56,1567
41.62,1736
41.68,1341
41.74,1253
41.8,1153
41.86,1194
41.92,1126
41.98,1117
42.04,1145
42.1,1289
42.16,1201
42.22,1145
42.28,1185
42.34,1196
42.4,1185
42.46,1250
42.52,1267
42.58,1356
42.64,1542
42.7,2040
42.76,4491
42.82,8592
42.88,6268
42.94,3265
43,2452
43.06,1779
43.12,1423
43.18,1339
43.24,1202
43.3,1168
43.36,1137
43.42,1101
43.48,1153
43.54,1129
43.6,1164
43.66,1434
43.72,2146
43.78,1781
43.84,1295
43.9,1155
43.96,1151
44.02,1160
44.08,1257
44.14,1713
44.2,2460
44.26,1981
44.32,1572
44.38,1678
44.44,2591
44.5,3050
44.56,2166
44.62,1508
44.68,1257
44.74,1087
44.8,1144
44.86,1049
44.92,1092
44.98,1078
45.04,1091
45.1,1209
45.16,1435
45.22,1444
45.28,1297
45.34,1454
45.4,2207
45.46,2976
45.52,1981
45.58,1261
45.64,1172
45.7,1080
45.76,1062
45.82,991
45.88,1007
45.94,1030
46,1042
46.06,960
46.12,1062
46.18,1001
46.24,1107
46.3,1075
46.36,1068
46.42,1071
46.48,976
46.54,1020
46.6,1032
46.66,984
46.72,1008
46.78,964
46.84,1002
46.9,1009
46.96,1075
47.02,1271
47.08,1406
47.14,1169
47.2,1180
47.26,1191
47.32,1302
47.38,1188
47.44,1066
47.5,1094
47.56,1099
47.62,1070
47.68,1142
47.74,1298
47.8,1976
47.86,2009
47.92,1388
47.98,1148
48.04,1187
48.1,1266
48.16,1160
48.22,1010
48.28,999
48.34,985
48.4,973
48.46,942
48.52,967
48.58,970
48.64,995
48.7,962
48.76,1054
48.82,998
48.88,991
48.94,918
49,956
49.06,991
49.12,945
49.18,927
49.24,941
49.3,988
49.36,957
49.42,930
49.48,946
49.54,971
49.6,916
49.66,946
49.72,979
49.78,987
49.84,960
49.9,968
49.96,966
50.02,1007
50.08,1017
50.14,1052
50.2,1063
50.26,1282
50.32,1221
50.38,1122
50.44,1031
50.5,1200
50.56,1505
50.62,1724
50.68,1243
50.74,1115
50.8,990
50.86,984
50.92,991
50.98,943
51.04,944
51.1,946
51.16,992
51.22,951
51.28,1048
51.34,1031
51.4,1206
51.46,1280
51.52,1222
51.58,1350
51.64,1711
51.7,1378
51.76,1194
51.82,1126
51.88,1089
51.94,1134
52,1052
52.06,1058
52.12,1101
52.18,1049
52.24,1306
52.3,1774
52.36,1619
52.42,1273
52.48,1223
52.54,1437
52.6,1892
52.66,1695
52.72,1329
52.78,1613
52.84,1483
52.9,1114
52.96,1118
53.02,1063
53.08,1162
53.14,1248
53.2,1659
53.26,1867
53.32,1673
53.38,1408
53.44,1143
53.5,1048
53.56,1238
53.62,1340
53.68,1084
53.74,1037
53.8,994
53.86,963
53.92,978
53.98,988
54.04,985
54.1,937
54.16,1008
54.22,1042
54.28,1065
54.34,1120
54.4,1337
54.46,1630
54.52,1323
54.58,1032
54.64,1010
54.7,903
54.76,959
54.82,937
54.88,930
54.94,952
55,973
55.06,988
55.12,964
55.18,929
55.24,977
55.3,978
55.36,962
55.42,1020
55.48,1179
55.54,1576
55.6,1801
55.66,1478
55.72,1153
55.78,1060
55.84,1067
55.9,1176
55.96,1373
56.02,1282
56.08,1101
56.14,1117
56.2,1098
56.26,1115
56.32,1292
56.38,1684
56.44,1426
56.5,1131
56.56,1022
56.62,1038
56.68,1046
56.74,1061
56.8,939
56.86,983
56.92,969
56.98,970
57.04,1000
57.1,1193
57.16,1418
57.22,1588
57.28,1578
57.34,1424
57.4,1743
57.46,1954
57.52,1357
57.58,1127
57.64,1013
57.7,1073
57.76,987
57.82,996
57.88,967
57.94,899
58,937
58.06,976
58.12,1089
58.18,1017
58.24,1036
58.3,1017
58.36,1055
58.42,1352
58.48,1752
58.54,1477
58.6,1088
58.66,1044
58.72,1030
58.78,1071
58.84,1433
58.9,1448
58.96,1261
59.02,1279
59.08,1119
59.14,944
59.2,915
59.26,975
59.32,998
59.38,986
59.44,952
59.5,951
59.56,1020
59.62,948
59.68,897
59.74,959
59.8,889
59.86,897
59.92,914
59.98,876
60.04,917
60.1,928
60.16,932
60.22,911
60.28,900
60.34,895
60.4,963
60.46,968
60.52,980
60.58,917
60.64,869
60.7,866
60.76,922
60.82,964
60.88,940
60.94,926
61,917
61.06,953
61.12,1079
61.18,1287
61.24,1280
61.3,1107
61.36,1024
61.42,1053
61.48,970
61.54,892
61.6,880
61.66,855
61.72,887
61.78,896
61.84,917
61.9,940
61.96,987
62.02,929
62.08,878
62.14,859
62.2,912
62.26,895
62.32,917
62.38,914
62.44,922
62.5,922
62.56,927
62.62,909
62.68,936
62.74,956
62.8,922
62.86,910
62.92,896
62.98,868
63.04,910
63.1,896
63.16,975
63.22,970
63.28,1032
63.34,1165
63.4,1686
63.46,2180
63.52,1529
63.58,1274
63.64,1455
63.7,1403
63.76,1096
63.82,995
63.88,1024
63.94,932
64,991
64.06,1001
64.12,1166
64.18,1617
64.24,1807
64.3,1324
64.36,1040
64.42,920
64.48,889
64.54,920
64.6,877
64.66,869
64.72,882
64.78,873
64.84,859
64.9,946
64.96,1030
65.02,975
65.08,944
65.14,867
65.2,895
65.26,877
65.32,877
65.38,857
65.44,852
65.5,909
65.56,947
65.62,962
65.68,1064
65.74,1026
65.8,958
65.86,951
65.92,871
65.98,994
66.04,1044
66.1,1070
66.16,991
66.22,941
66.28,882
66.34,865
66.4,862
66.46,895
66.52,888
66.58,889
66.64,963
66.7,997
66.76,975
66.82,926
66.88,912
66.94,950
67,935
67.06,949
67.12,1074
67.18,948
67.24,901
67.3,877
67.36,833
67.42,817
67.48,852
67.54,864
67.6,866
67.66,867
67.72,927
67.78,855
67.84,906
67.9,865
67.96,909
68.02,906
68.08,1082
68.14,1155
68.2,944
68.26,951
68.32,950
68.38,922
68.44,874
68.5,814
68.56,842
68.62,863
68.68,882
68.74,846
68.8,892
68.86,859
68.92,938
68.98,1065
69.04,1092
69.1,1125
69.16,1024
69.22,957
69.28,937
69.34,940
69.4,893
69.46,914
69.52,936
69.58,982
69.64,1034
69.7,1173
69.76,1447
69.82,1596
69.88,1614
69.94,1503
70,1502
70.06,2037
70.12,2109
70.18,1732
70.24,1655
70.3,1524
70.36,1373
70.42,1268
70.48,1233
70.54,1284
70.6,1386
70.66,1233
70.72,1189
70.78,1198
70.84,1304
70.9,1248
70.96,1145
71.02,1082
71.08,974
71.14,913
71.2,922
71.26,911
71.32,890
71.38,977
71.44,923
71.5,883
71.56,1063
71.62,1356
71.68,1241
71.74,999
71.8,1001
71.86,908
71.92,916
71.98,977
72.04,945
72.1,1027
72.16,1224
72.22,1175
72.28,1145
72.34,1320
72.4,1670
72.46,1526
72.52,1228
72.58,1012
72.64,1001
72.7,878
72.76,928
72.82,924
72.88,1128
72.94,1173
73,1101
73.06,986
73.12,959
73.18,988
73.24,964
73.3,1035
73.36,1032
73.42,1143
73.48,1479
73.54,1520
73.6,1174
73.66,1047
73.72,959
73.78,939
73.84,973
73.9,1062
73.96,1089
74.02,1344
74.08,1273
74.14,1070
74.2,929
74.26,932
74.32,951
74.38,928
74.44,964
74.5,986
74.56,1116
74.62,1592
74.68,1834
74.74,1482
74.8,1234
74.86,1151
74.92,1018
74.98,1042
75.04,1085
75.1,973
75.16,1014
75.22,1074
75.28,1010
75.34,903
75.4,874
75.46,830
75.52,876
75.58,882
75.64,923
75.7,933
75.76,945
75.82,969
75.88,1016
75.94,1009
76,916
76.06,921
76.12,955
76.18,864
76.24,863
76.3,924
76.36,877
76.42,970
76.48,1021
76.54,892
76.6,844
76.66,883
76.72,867
76.78,913
76.84,899
76.9,892
76.96,873
77.02,1000
77.08,964
77.14,915
77.2,888
77.26,888
77.32,864
77.38,816
77.44,843
77.5,834
77.56,819
77.62,820
77.68,833
77.74,851
77.8,821
77.86,869
77.92,814
77.98,867
78.04,847
78.1,856
78.16,861
78.22,840
78.28,824
78.34,844
78.4,840
78.46,837
78.52,856
78.58,849
78.64,850
78.7,821
78.76,819
78.82,839
78.88,819
78.94,900
79,906
79.06,1031
79.12,991
79.18,926
79.24,876
79.3,915
79.36,998
79.42,1095
79.48,1013
79.54,872
79.6,869
79.66,881
79.72,917
79.78,943
79.84,882
79.9,824
79.96,844
80.02,874
80.08,844
80.14,851
80.2,859
80.26,814
80.32,800
80.38,817
80.44,840
80.5,776
80.56,826
80.62,844
80.68,835
80.74,852
80.8,884
80.86,943
80.92,1023
80.98,1009
81.04,888
81.1,938
81.16,813
81.22,851
81.28,851
81.34,883
81.4,974
81.46,964
81.52,999
81.58,1131
81.64,1182
81.7,1064
81.76,918
81.82,905
81.88,900
81.94,956
82,871
82.06,910
82.12,866
82.18,817
82.24,851
82.3,841
82.36,807
82.42,828
82.48,799
82.54,853
82.6,872
82.66,899
82.72,840
82.78,840
82.84,849
82.9,791
82.96,806
83.02,844
83.08,886
83.14,922
83.2,1021
83.26,1165
83.32,1228
83.38,1083
83.44,902
83.5,932
83.56,865
83.62,835
83.68,833
83.74,826
83.8,780
83.86,815
83.92,809
83.98,803
84.04,811
84.1,824
84.16,774
84.22,784
84.28,847
84.34,787
84.4,814
84.46,792
84.52,778
84.58,817
84.64,796
84.7,853
84.76,884
84.82,934
84.88,807
84.94,863
85,828
85.06,922
85.12,934
85.18,864
85.24,880
85.3,946
85.36,923
85.42,901
85.48,936
85.54,884
85.6,923
85.66,925
85.72,872
85.78,825
85.84,878
85.9,977
85.96,1056
86.02,965
86.08,874
86.14,852
86.2,867
86.26,809
86.32,867
86.38,913
86.44,897
86.5,901
86.56,857
86.62,923
86.68,840
86.74,851
86.8,839
86.86,867
86.92,785
86.98,814
87.04,876
87.1,976
87.16,907
87.22,793
87.28,839
87.34,889
87.4,809
87.46,829
87.52,812
87.58,806
87.64,780
87.7,788
87.76,813
87.82,766
87.88,801
87.94,787
88,826
88.06,774
88.12,805
88.18,789
88.24,758
88.3,817
88.36,784
88.42,801
88.48,799
88.54,751
88.6,806
88.66,796
88.72,874
88.78,874
88.84,872
88.9,837
88.96,802
89.02,769
89.08,766
89.14,757
89.2,798
89.26,759
89.32,770
89.38,903
89.44,859
89.5,854
89.56,925
89.62,933
89.68,999
89.74,937
89.8,819
89.86,848
89.92,819
89.98,783
90.04,852
90.1,868
90.16,903
90.22,881
90.28,881
90.34,784
90.4,832
90.46,774
90.52,801
90.58,859
90.64,821
90.7,801
90.76,859
90.82,768
90.88,800
90.94,824
91,878
91.06,848
91.12,866
91.18,852
91.24,863
91.3,931
91.36,836
91.42,847
91.48,778
91.54,791
91.6,800
91.66,857
91.72,852
91.78,930
91.84,952
91.9,926
91.96,813
92.02,812
92.08,777
92.14,805
92.2,764
92.26,793
92.32,844
92.38,942
92.44,885
92.5,878
92.56,817
92.62,742
92.68,780
92.74,783
92.8,711
92.86,815
92.92,795
92.98,763
93.04,773
93.1,728
93.16,756
93.22,792
93.28,787
93.34,800
93.4,744
93.46,850
93.52,816
93.58,808
93.64,853
93.7,1007
93.76,1117
93.82,1024
93.88,868
93.94,849
94,847
94.06,831
94.12,902
94.18,850
94.24,908
94.3,914
94.36,889
94.42,782
94.48,842
94.54,816
94.6,877
94.66,891
94.72,913
94.78,837
94.84,822
94.9,812
94.96,784
94.99,794