File: data/xrd_icdd_PDF/00-065-0380 (PD3).csv
4.005,2342
4.095,2410
4.185,2406
4.275,2359
4.365,2374
4.455,2457
4.545,2352
4.635,2344
4.725,2476
4.815,2351
4.905,2351
4.995,2448
5.085,2498
5.175,2366
5.265,2411
5.355,2288
5.445,2456
5.535,2441
5.625,2460
5.715,2394
5.805,2313
5.895,2356
5.985,2442
6.075,2342
6.165,2364
6.255,2288
6.345,2363
6.435,2472
6.525,2413
6.615,2323
6.705,2324
6.795,2213
6.885,2345
6.975,2303
7.065,2268
7.155,2227
7.245,2258
7.335,2266
7.425,2182
7.515,2244
7.605,2251
7.695,2267
7.785,2272
7.875,2168
7.965,2215
8.055,2127
8.145,2134
8.235,2145
8.325,2053
8.415,2097
8.505,2182
8.595,2101
8.685,2044
8.775,2092
8.865,2100
8.955,2074
9.045,1901
9.135,2000
9.225,2046
9.315,2033
9.405,2095
9.495,2032
9.585,2059
9.675,2019
9.765,1962
9.855,1963
9.945,1856
10.035,1898
10.125,1835
10.215,1888
10.305,2006
10.395,1870
10.485,1881
10.575,1869
10.665,1923
10.755,1839
10.845,1948
10.935,1928
11.025,1831
11.115,1753
11.205,1877
11.295,1876
11.385,1804
11.475,1777
11.565,1792
11.655,1803
11.745,1874
11.835,1738
11.925,1832
12.015,1800
12.105,1792
12.195,1776
12.285,1843
12.375,1742
12.465,1706
12.555,1765
12.645,1776
12.735,1834
12.825,1772
12.915,1820
13.005,1661
13.095,1722
13.185,1777
13.275,1710
13.365,1707
13.455,1703
13.545,1752
13.635,1757
13.725,1742
13.815,1782
13.905,1794
13.995,1800
14.085,1796
14.175,1811
14.265,1841
14.355,1837
14.445,1799
14.535,1776
14.625,1828
14.715,1801
14.805,1737
14.895,1770
14.985,1701
15.075,1771
15.165,1738
15.255,1744
15.345,1724
15.435,1788
15.525,1686
15.615,1756
15.705,1700
15.795,1701
15.885,1652
15.975,1712
16.065,1646
16.155,1639
16.245,1599
16.335,1686
16.425,1585
16.515,1562
16.605,1573
16.695,1619
16.785,1573
16.875,1628
16.965,1626
17.055,1565
17.145,1593
17.235,1564
17.325,1612
17.415,1485
17.505,1554
17.595,1532
17.685,1549
17.775,1499
17.865,1477
17.955,1496
18.045,1492
18.135,1498
18.225,1553
18.315,1496
18.405,1581
18.495,1416
18.585,1462
18.675,1477
18.765,1505
18.855,1460
18.945,1468
19.035,1464
19.125,1418
19.215,1472
19.305,1486
19.395,1433
19.485,1476
19.575,1456
19.665,1499
19.755,1351
19.845,1361
19.935,1468
20.025,1397
20.115,1386
20.205,1409
20.295,1424
20.385,1439
20.475,1461
20.565,1511
20.655,1628
20.745,1486
20.835,1564
20.925,1512
21.015,1566
21.105,1638
21.195,1502
21.285,1616
21.375,1748
21.465,2023
21.555,2757
21.645,3623
21.735,2254
21.825,1755
21.915,1502
22.005,1414
22.095,1442
22.185,1401
22.275,1464
22.365,2844
22.455,8184
22.545,3120
22.635,1399
22.725,1242
22.815,1267
22.905,1278
22.995,1229
23.085,1206
23.175,1224
23.265,1168
23.355,1177
23.445,1170
23.535,1112
23.625,1099
23.715,1072
23.805,1131
23.895,1107
23.985,1130
24.075,1004
24.165,1101
24.255,1054
24.345,1092
24.435,1005
24.525,1066
24.615,1090
24.705,994
24.795,1033
24.885,1009
24.975,996
25.065,964
25.155,963
25.245,1021
25.335,1018
25.425,977
25.515,939
25.605,953
25.695,958
25.785,952
25.875,946
25.965,991
26.055,996
26.145,956
26.235,929
26.325,898
26.415,866
26.505,877
26.595,915
26.685,916
26.775,890
26.865,869
26.955,887
27.045,939
27.135,867
27.225,891
27.315,905
27.405,939
27.495,833
27.585,837
27.675,877
27.765,898
27.855,861
27.945,837
28.035,866
28.125,934
28.215,914
28.305,877
28.395,876
28.485,818
28.575,881
28.665,856
28.755,880
28.845,849
28.935,779
29.025,863
29.115,826
29.205,869
29.295,870
29.385,778
29.475,761
29.565,826
29.655,808
29.745,799
29.835,814
29.925,794
30.015,874
30.105,825
30.195,821
30.285,847
30.375,854
30.465,1028
30.555,1645
30.645,6300
30.735,9010
30.825,2938
30.915,1581
31.005,1210
31.095,1586
31.185,3001
31.275,6642
31.365,15674
31.455,10535
31.545,3320
31.635,1651
31.725,1202
31.815,1137
31.905,930
31.995,821
32.085,802
32.175,811
32.265,793
32.355,730
32.445,776
32.535,727
32.625,741
32.715,738
32.805,706
32.895,698
32.985,759
33.075,758
33.165,733
33.255,701
33.345,704
33.435,700
33.525,664
33.615,686
33.705,769
33.795,742
33.885,781
33.975,676
34.065,740
34.155,698
34.245,691
34.335,671
34.425,690
34.515,687
34.605,674
34.695,737
34.785,700
34.875,726
34.965,693
35.055,801
35.145,916
35.235,794
35.325,1091
35.415,1965
35.505,3345
35.595,2495
35.685,1102
35.775,844
35.865,868
35.955,754
36.045,737
36.135,841
36.225,917
36.315,764
36.405,892
36.495,881
36.585,966
36.675,910
36.765,948
36.855,1142
36.945,1271
37.035,1544
37.125,2540
37.215,6963
37.305,17527
37.395,16452
37.485,5047
37.575,2350
37.665,1507
37.755,1163
37.845,1003
37.935,943
38.025,895
38.115,775
38.205,752
38.295,742
38.385,771
38.475,721
38.565,737
38.655,721
38.745,758
38.835,730
38.925,767
39.015,738
39.105,689
39.195,725
39.285,699
39.375,707
39.465,719
39.555,726
39.645,704
39.735,705
39.825,708
39.915,737
40.005,680
40.095,720
40.185,737
40.275,745
40.365,733
40.455,730
40.545,724
40.635,721
40.725,748
40.815,820
40.905,768
40.995,839
41.085,777
41.175,831
41.265,863
41.355,940
41.445,1052
41.535,1116
41.625,1319
41.715,1726
41.805,2628
41.895,6948
41.985,18840
42.075,10294
42.165,5892
42.255,6990
42.345,12410
42.435,23240
42.525,20575
42.615,8700
42.705,2744
42.795,1542
42.885,1606
42.975,1328
43.065,1387
43.155,1055
43.245,979
43.335,969
43.425,1159
43.515,1006
43.605,1671
43.695,3108
43.785,6094
43.875,13414
43.965,30834
44.055,39400
44.145,15684
44.235,5569
44.325,2751
44.415,1739
44.505,1263
44.595,1073
44.685,949
44.775,941
44.865,828
44.955,817
45.045,763
45.135,792
45.225,824
45.315,814
45.405,897
45.495,1029
45.585,1608
45.675,3194
45.765,7473
45.855,23492
45.945,11107
46.035,2029
46.125,1153
46.215,888
46.305,807
46.395,710
46.485,637
46.575,659
46.665,697
46.755,601
46.845,573
46.935,623
47.025,595
47.115,565
47.205,586
47.295,681
47.385,645
47.475,649
47.565,616
47.655,651
47.745,744
47.835,718
47.925,846
48.015,1700
48.105,5162
48.195,4970
48.285,2050
48.375,1026
48.465,665
48.555,740
48.645,619
48.735,674
48.825,663
48.915,599
49.005,616
49.095,648
49.185,637
49.275,607
49.365,597
49.455,624
49.545,656
49.635,700
49.725,821
49.815,1069
49.905,1694
49.995,3054
50.085,2880
50.175,1389
50.265,841
50.355,628
50.445,554
50.535,548
50.625,437
50.715,514
50.805,527
50.895,554
50.985,496
51.075,489
51.165,625
51.255,762
51.345,605
51.435,498
51.525,452
51.615,424
51.705,415
51.795,438
51.885,426
51.975,404
52.065,380
52.155,403
52.245,437
52.335,427
52.425,372
52.515,387
52.605,422
52.695,396
52.785,392
52.875,421
52.965,389
53.055,406
53.145,415
53.235,408
53.325,395
53.415,411
53.505,398
53.595,382
53.685,383
53.775,432
53.865,375
53.955,383
54.045,406
54.135,392
54.225,383
54.315,398
54.405,383
54.495,400
54.585,358
54.675,420
54.765,428
54.855,382
54.945,405
55.035,431
55.125,385
55.215,386
55.305,391
55.395,360
55.485,381
55.575,380
55.665,374
55.755,366
55.845,388
55.935,373
56.025,398
56.115,407
56.205,419
56.295,420
56.385,425
56.475,415
56.565,385
56.655,391
56.745,386
56.835,367
56.925,424
57.015,398
57.105,388
57.195,373
57.285,416
57.375,406
57.465,390
57.555,432
57.645,386
57.735,570
57.825,730
57.915,715
58.005,524
58.095,434
58.185,437
58.275,323
58.365,373
58.455,376
58.545,373
58.635,371
58.725,359
58.815,384
58.905,500
58.995,666
59.085,791
59.175,930
59.265,1378
59.355,2006
59.445,1424
59.535,917
59.625,664
59.715,584
59.805,586
59.895,629
59.985,629
60.075,698
60.165,729
60.255,1006
60.345,1610
60.435,2754
60.525,5450
60.615,6147
60.705,3057
60.795,1764
60.885,1340
60.975,988
61.065,772
61.155,589
61.245,546
61.335,544
61.425,497
61.515,485
61.605,550
61.695,514
61.785,554
61.875,551
61.965,518
62.055,556
62.145,596
62.235,566
62.325,568
62.415,600
62.505,688
62.595,785
62.685,915
62.775,1378
62.865,2023
62.955,1515
63.045,954
63.135,807
63.225,724
63.315,734
63.405,629
63.495,615
63.585,710
63.675,970
63.765,1757
63.855,4594
63.945,8532
64.035,4871
64.125,2714
64.215,1522
64.305,1004
64.395,847
64.485,743
64.575,666
64.665,694
64.755,803
64.845,984
64.935,1897
65.025,3051
65.115,2003
65.205,1210
65.295,1120
65.385,1445
65.475,2122
65.565,1986
65.655,1192
65.745,702
65.835,598
65.925,533
66.015,477
66.105,424
66.195,472
66.285,480
66.375,472
66.465,434
66.555,423
66.645,419
66.735,396
66.825,448
66.915,402
67.005,394
67.095,416
67.185,435
67.275,400
67.365,368
67.455,406
67.545,369
67.635,372
67.725,394
67.815,368
67.905,370
67.995,387
68.085,410
68.175,414
68.265,479
68.355,552
68.445,703
68.535,659
68.625,510
68.715,450
68.805,454
68.895,442
68.985,476
69.075,474
69.165,475
69.255,520
69.345,674
69.435,863
69.525,1381
69.615,2931
69.705,6909
69.795,6380
69.885,2874
69.975,1529
70.065,1144
70.155,865
70.245,736
70.335,674
70.425,579
70.515,569
70.605,531
70.695,517
70.785,495
70.875,469
70.965,504
71.055,513
71.145,449
71.235,509
71.325,483
71.415,482
71.505,674
71.595,605
71.685,470
71.775,428
71.865,383
71.955,468
72.045,417
72.135,423
72.225,455
72.315,485
72.405,517
72.495,526
72.585,539
72.675,576
72.765,671
72.855,899
72.945,1424
73.035,2434
73.125,3516
73.215,2758
73.305,1572
73.395,892
73.485,674
73.575,551
73.665,462
73.755,433
73.845,458
73.935,401
74.025,412
74.115,398
74.205,421
74.295,402
74.385,405
74.475,441
74.565,457
74.655,489
74.745,522
74.835,562
74.925,698
75.015,926
75.105,1457
75.195,2016
75.285,2179
75.375,2269
75.465,1617
75.555,1061
75.645,1118
75.735,1391
75.825,1106
75.915,673
76.005,510
76.095,529
76.185,468
76.275,446
76.365,456
76.455,413
76.545,433
76.635,448
76.725,536
76.815,590
76.905,557
76.995,480
77.085,490
77.175,493
77.265,490
77.355,533
77.445,485
77.535,559
77.625,599
77.715,689
77.805,676
77.895,732
77.985,664
78.075,607
78.165,620
78.255,527
78.345,493
78.435,477
78.525,493
78.615,488
78.705,498
78.795,521
78.885,503
78.975,574
79.065,613
79.155,666
79.245,869
79.335,1088
79.425,1526
79.515,2334
79.605,3734
79.695,3673
79.785,2231
79.875,1172
79.965,857
80.055,638
80.145,522
80.235,506
80.325,446
80.415,465
80.505,408
80.595,393
80.685,395
80.775,380
80.865,441
80.955,433
81.045,453
81.135,469
81.225,443
81.315,434
81.405,391
81.495,368
81.585,393
81.675,418
81.765,452
81.855,451
81.945,452
82.035,476
82.125,494
82.215,600
82.305,798
82.395,1388
82.485,2517
82.575,2601
82.665,1697
82.755,1151
82.845,1216
82.935,1221
83.025,1513
83.115,2154
83.205,2834
83.295,2344
83.385,1990
83.475,2730
83.565,3916
83.655,3810
83.745,2365
83.835,1729
83.925,1217
84.015,1049
84.105,816
84.195,648
84.285,576
84.375,523
84.465,520
84.555,533
84.645,564
84.735,543
84.825,488
84.915,453
85.005,422
85.095,390
85.185,381
85.275,390
85.365,401
85.455,380
85.545,433
85.635,416
85.725,438
85.815,433
85.905,473
85.995,510
86.085,604
86.175,777
86.265,1014
86.355,1183
86.445,1131
86.535,1161
86.625,968
86.715,612
86.805,509
86.895,459
86.985,427
87.075,440
87.165,458
87.255,413
87.345,401
87.435,370
87.525,381
87.615,354
87.705,399
87.795,391
87.885,510
87.975,553
88.065,582
88.155,468
88.245,370
88.335,354
88.425,353
88.515,327
88.605,330
88.695,333
88.785,370
88.875,391
88.965,385
89.055,423
89.145,450
89.235,385
89.325,382
89.415,381
89.505,306
89.595,348
89.685,321
89.775,320
89.865,343
89.955,340
90.045,353
90.135,297
90.225,362
90.315,330
90.405,343
90.495,342
90.585,380
90.675,364
90.765,394
90.855,397
90.945,364
91.035,343
91.125,362
91.215,394
91.305,413
91.395,610
91.485,846
91.575,887
91.665,722
91.755,526
91.845,474
91.935,440
92.025,469
92.115,414
92.205,462
92.295,494
92.385,537
92.475,628
92.565,828
92.655,1230
92.745,1667
92.835,1856
92.925,1577
93.015,1072
93.105,852
93.195,606
93.285,603
93.375,508
93.465,474
93.555,393
93.645,436
93.735,391
93.825,401
93.915,359
94.005,417
94.095,400
94.185,430
94.275,413
94.365,426
94.455,453
94.545,411
94.635,390
94.725,416
94.815,397
94.905,448
94.995,474
95.085,458
95.175,458
95.265,489
95.355,472
95.445,470
95.535,510
95.625,553
95.715,589
95.805,624
95.895,748
95.985,693
96.075,601
96.165,545
96.255,477
96.345,512
96.435,568
96.525,625
96.615,780
96.705,1019
96.795,1301
96.885,1689
96.975,2464
97.065,3290
97.155,3341
97.245,2718
97.335,1755
97.425,1271
97.515,882
97.605,660
97.695,588
97.785,482
97.875,492
97.965,496
98.055,513
98.145,425
98.235,450
98.325,438
98.415,429
98.505,485
98.595,530
98.685,617
98.775,704
98.865,538
98.955,440
99.045,400
99.135,382
99.225,436
99.315,413
99.405,416
99.495,390
99.585,440
99.675,532
99.765,579
99.855,618
99.945,466
100.035,393
100.125,357
100.215,340
100.305,321
100.395,307
100.485,351
100.575,304
100.665,336
100.755,314
100.845,296
100.935,303
101.025,295
101.115,298
101.205,342
101.295,320
101.385,338
101.475,335
101.565,384
101.655,364
101.745,418
101.835,417
101.925,388
102.015,414
102.105,457
102.195,536
102.285,710
102.375,1151
102.465,1287
102.555,720
102.645,444
102.735,393
102.825,400
102.915,326
103.005,335
103.095,334
103.185,280
103.275,348
103.365,327
103.455,312
103.545,317
103.635,284
103.725,297
103.815,301
103.905,330
103.995,308
104.085,339
104.175,362
104.265,353
104.355,348
104.445,358
104.535,386
104.625,381
104.715,443
104.805,557
104.895,751
104.985,1117
105.075,1640
105.165,1855
105.255,1423
105.345,910
105.435,670
105.525,586
105.615,444
105.705,484
105.795,400
105.885,411
105.975,357
106.065,366
106.155,371
106.245,341
106.335,424
106.425,397
106.515,472
106.605,438
106.695,418
106.785,388
106.875,368
106.965,347
107.055,367
107.145,344
107.235,375
107.325,352
107.415,336
107.505,335
107.595,331
107.685,358
107.775,404
107.865,389
107.955,391
108.045,441
108.135,508
108.225,622
108.315,789
108.405,917
108.495,1055
108.585,1057
108.675,844
108.765,746
108.855,729
108.945,693
109.035,717
109.125,761
109.215,899
109.305,1075
109.395,907
109.485,740
109.575,580
109.665,464
109.755,452
109.845,407
109.935,427
110.025,363
110.115,372
110.205,341
110.295,370
110.385,352
110.475,377
110.565,390
110.655,338
110.745,378
110.835,369
110.925,420
111.015,424
111.105,377
111.195,373
111.285,359
111.375,419
111.465,357
111.555,347
111.645,359
111.735,354
111.825,396
111.915,396
112.005,457
112.095,443
112.185,542
112.275,563
112.365,521
112.455,526
112.545,552
112.635,586
112.725,631
112.815,766
112.905,845
112.995,776
113.085,731
113.175,705
113.265,809
113.355,916
113.445,1069
113.535,1171
113.625,1146
113.715,1107
113.805,853
113.895,754
113.985,675
114.075,605
114.165,616
114.255,550
114.345,537
114.435,551
114.525,570
114.615,674
114.705,813
114.795,933
114.885,922
114.975,843
115.065,672
115.155,631
115.245,627
115.335,670
115.425,743
115.515,741
115.605,746
115.695,621
115.785,583
115.875,482
115.965,462
116.055,438
116.145,430
116.235,459
116.325,484
116.415,431
116.505,539
116.595,540
116.685,608
116.775,712
116.865,835
116.955,1048
117.045,1157
117.135,1160
117.225,979
117.315,836
117.405,662
117.495,655
117.585,523
117.675,543
117.765,542
117.855,584
117.945,755
118.035,1073
118.125,1300
118.215,1303
118.305,1026
118.395,818
118.485,647
118.575,580
118.665,512
118.755,520
118.845,390
118.935,425
119.025,423
119.115,395
119.205,400
119.295,413
119.385,456
119.475,480
119.565,568
119.655,636
119.745,771
119.835,751
119.925,766
120.015,679
120.105,609
120.195,489
120.285,518
120.375,437
120.465,384
120.555,330
120.615,321