File: data/xrd_icdd_PDF/00-066-0216 (PD3).csv
8,2178
8.065,2179
8.13,2175
8.195,2190
8.26001,2171
8.32501,2197
8.39001,2162
8.45501,2176
8.52001,2198
8.58501,2261
8.65001,2174
8.71502,2165
8.78002,2172
8.84502,2188
8.91002,2205
8.97502,2155
9.04002,2190
9.10502,2175
9.17003,2193
9.23503,2209
9.30003,2240
9.36503,2174
9.43003,2153
9.49503,2158
9.56003,2169
9.62504,2213
9.69004,2184
9.75504,2207
9.82004,2152
9.88504,2164
9.95004,2139
10.01504,2125
10.08005,2178
10.14505,2124
10.21005,2138
10.27505,2136
10.34005,2160
10.40505,2123
10.47005,2161
10.53506,2168
10.60006,2151
10.66506,2133
10.73006,2110
10.79506,2129
10.86006,2152
10.92506,2154
10.99007,2103
11.05507,2127
11.12007,2139
11.18507,2138
11.25007,2101
11.31507,2142
11.38007,2130
11.44508,2128
11.51008,2104
11.57508,2088
11.64008,2071
11.70508,2136
11.77008,2119
11.83508,2113
11.90009,2111
11.96509,2107
12.03009,2104
12.09509,2084
12.16009,2142
12.22509,2061
12.29009,2093
12.3551,2087
12.4201,2155
12.4851,2128
12.5501,2108
12.6151,2081
12.6801,2104
12.7451,2109
12.81011,2062
12.87511,2057
12.94011,2088
13.00511,2130
13.07011,2116
13.13511,2063
13.20011,2056
13.26512,2098
13.33012,2122
13.39512,2091
13.46012,2180
13.52512,2134
13.59012,2064
13.65512,2088
13.72013,2110
13.78513,2032
13.85013,2034
13.91513,2082
13.98013,2066
14.04513,2053
14.11013,2101
14.17514,2018
14.24014,2027
14.30514,2053
14.37014,2037
14.43514,2028
14.50014,2119
14.56514,2058
14.63015,2015
14.69515,2038
14.76015,2032
14.82515,2021
14.89015,2032
14.95515,2031
15.02015,2021
15.08516,2070
15.15016,2013
15.21516,2001
15.28016,2075
15.34516,2023
15.41016,2017
15.47516,2013
15.54017,2015
15.60517,2041
15.67017,2033
15.73517,2012
15.80017,2078
15.86517,1982
15.93017,2019
15.99518,2032
16.06018,1979
16.12518,2008
16.19018,2000
16.25518,1975
16.32018,2038
16.38518,2021
16.45019,2022
16.51519,2012
16.58019,2020
16.64519,1996
16.71019,1988
16.77519,1991
16.84019,2034
16.9052,2036
16.9702,2055
17.0352,2067
17.1002,2117
17.1652,2102
17.2302,2127
17.2952,2248
17.36021,2256
17.42521,2310
17.49021,2213
17.55521,2064
17.62021,2000
17.68521,1988
17.75021,2015
17.81522,2007
17.88022,1987
17.94522,1994
18.01022,1931
18.07522,1974
18.14022,1985
18.20522,1986
18.27023,1971
18.33523,2001
18.40023,1977
18.46523,1933
18.53023,1983
18.59523,1958
18.66023,1972
18.72524,1991
18.79024,1922
18.85524,1984
18.92024,1934
18.98524,1950
19.05024,1951
19.11524,1954
19.18025,1932
19.24525,1937
19.31025,1941
19.37525,1983
19.44025,1941
19.50525,1927
19.57025,1888
19.63526,2003
19.70026,1918
19.76526,1909
19.83026,1905
19.89526,1930
19.96026,1943
20.02526,1935
20.09027,1902
20.15527,1897
20.22027,1907
20.28527,1900
20.35027,1870
20.41527,1873
20.48027,1874
20.54528,1910
20.61028,1887
20.67528,1892
20.74028,1912
20.80528,1946
20.87028,1942
20.93528,1911
21.00029,1926
21.06529,1971
21.13029,1947
21.19529,2032
21.26029,2106
21.32529,2089
21.39029,2156
21.4553,2090
21.5203,2020
21.5853,1971
21.6503,1923
21.7153,1895
21.7803,1861
21.8453,1896
21.91031,1837
21.97531,1849
22.04031,1848
22.10531,1888
22.17031,1842
22.23531,1767
22.30031,1774
22.36532,1739
22.43032,1738
22.49532,1732
22.56032,1721
22.62532,1681
22.69032,1688
22.75532,1711
22.82033,1698
22.88533,1687
22.95033,1698
23.01533,1715
23.08033,1686
23.14533,1681
23.21033,1684
23.27534,1680
23.34034,1715
23.40534,1706
23.47034,1688
23.53534,1663
23.60034,1662
23.66534,1647
23.73035,1643
23.79535,1668
23.86035,1678
23.92535,1662
23.99035,1649
24.05535,1663
24.12035,1626
24.18536,1661
24.25036,1655
24.31536,1618
24.38036,1637
24.44536,1598
24.51036,1614
24.57536,1601
24.64037,1617
24.70537,1602
24.77037,1622
24.83537,1604
24.90037,1614
24.96537,1589
25.03037,1612
25.09538,1593
25.16038,1592
25.22538,1600
25.29038,1581
25.35538,1592
25.42038,1603
25.48538,1601
25.55039,1593
25.61539,1597
25.68039,1585
25.74539,1582
25.81039,1601
25.87539,1585
25.94039,1626
26.0054,1621
26.0704,1640
26.1354,1607
26.2004,1625
26.2654,1639
26.3304,1641
26.3954,1622
26.46041,1703
26.52541,1739
26.59041,1809
26.65541,1948
26.72041,2076
26.78541,2458
26.85041,3130
26.91542,4351
26.98042,7032
27.04542,11912
27.11042,21044
27.17542,25536
27.24042,10290
27.30542,4131
27.37043,2749
27.43543,2288
27.50043,2033
27.56543,1926
27.63043,1825
27.69543,1721
27.76043,1670
27.82544,1618
27.89044,1598
27.95544,1633
28.02044,1609
28.08544,1608
28.15044,1611
28.21544,1669
28.28045,1760
28.34545,1772
28.41045,1611
28.47545,1574
28.54045,1554
28.60545,1537
28.67045,1532
28.73546,1542
28.80046,1547
28.86546,1484
28.93046,1491
28.99546,1497
29.06046,1476
29.12546,1488
29.19047,1464
29.25547,1459
29.32047,1495
29.38547,1468
29.45047,1459
29.51547,1458
29.58047,1489
29.64548,1474
29.71048,1444
29.77548,1454
29.84048,1429
29.90548,1464
29.97048,1434
30.03548,1441
30.10049,1440
30.16549,1478
30.23049,1447
30.29549,1439
30.36049,1428
30.42549,1474
30.49049,1510
30.5555,1500
30.6205,1473
30.6855,1453
30.7505,1429
30.8155,1443
30.8805,1431
30.9455,1429
31.01051,1471
31.07551,1439
31.14051,1418
31.20551,1463
31.27051,1458
31.33551,1423
31.40051,1432
31.46552,1412
31.53052,1400
31.59552,1392
31.66052,1392
31.72552,1378
31.79052,1404
31.85552,1402
31.92053,1400
31.98553,1399
32.05053,1413
32.11553,1392
32.18053,1396
32.24553,1377
32.31053,1386
32.37554,1398
32.44054,1370
32.50554,1411
32.57054,1382
32.63554,1380
32.70054,1364
32.76554,1400
32.83055,1359
32.89555,1391
32.96055,1368
33.02555,1365
33.09055,1362
33.15555,1356
33.22055,1360
33.28556,1336
33.35056,1359
33.41556,1327
33.48056,1367
33.54556,1330
33.61056,1359
33.67556,1361
33.74057,1334
33.80557,1347
33.87057,1410
33.93557,1337
34.00057,1369
34.06557,1336
34.13057,1353
34.19558,1373
34.26058,1364
34.32558,1377
34.39058,1347
34.45558,1360
34.52058,1356
34.58558,1361
34.65059,1346
34.71559,1344
34.78059,1370
34.84559,1367
34.91059,1330
34.97559,1391
35.04059,1383
35.1056,1377
35.1706,1390
35.2356,1415
35.3006,1418
35.3656,1387
35.4306,1402
35.4956,1400
35.56061,1365
35.62561,1374
35.69061,1382
35.75561,1397
35.82061,1401
35.88561,1452
35.95061,1456
36.01562,1558
36.08062,1675
36.14562,1675
36.21062,1564
36.27562,1474
36.34062,1425
36.40562,1377
36.47063,1356
36.53563,1371
36.60063,1364
36.66563,1345
36.73063,1328
36.79563,1316
36.86063,1305
36.92564,1326
36.99064,1334
37.05564,1301
37.12064,1330
37.18564,1300
37.25064,1317
37.31564,1316
37.38065,1327
37.44565,1287
37.51065,1306
37.57565,1324
37.64065,1307
37.70565,1329
37.77065,1313
37.83566,1311
37.90066,1338
37.96566,1324
38.03066,1312
38.09566,1313
38.16066,1304
38.22566,1289
38.29067,1314
38.35567,1297
38.42067,1286
38.48567,1294
38.55067,1309
38.61567,1307
38.68067,1349
38.74568,1347
38.81068,1337
38.87568,1316
38.94068,1340
39.00568,1302
39.07068,1302
39.13568,1278
39.20069,1296
39.26569,1282
39.33069,1294
39.39569,1295
39.46069,1284
39.52569,1266
39.59069,1302
39.6557,1267
39.7207,1285
39.7857,1286
39.8507,1274
39.9157,1309
39.9807,1286
40.0457,1277
40.11071,1269
40.17571,1292
40.24071,1291
40.30571,1267
40.37071,1294
40.43571,1256
40.50071,1287
40.56572,1268
40.63072,1258
40.69572,1266
40.76072,1272
40.82572,1263
40.89072,1268
40.95573,1255
41.02073,1273
41.08573,1255
41.15073,1292
41.21573,1296
41.28073,1281
41.34573,1263
41.41074,1278
41.47574,1258
41.54074,1271
41.60574,1290
41.67074,1248
41.73574,1281
41.80074,1296
41.86575,1256
41.93075,1285
41.99575,1267
42.06075,1283
42.12575,1237
42.19075,1272
42.25575,1250
42.32076,1283
42.38576,1257
42.45076,1298
42.51576,1306
42.58076,1316
42.64576,1302
42.71076,1370
42.77577,1426
42.84077,1420
42.90577,1351
42.97077,1356
43.03577,1301
43.10077,1310
43.16577,1306
43.23078,1276
43.29578,1303
43.36078,1267
43.42578,1259
43.49078,1257
43.55578,1250
43.62078,1286
43.68579,1265
43.75079,1304
43.81579,1279
43.88079,1291
43.94579,1290
44.01079,1295
44.07579,1294
44.1408,1333
44.2058,1325
44.2708,1348
44.3358,1371
44.4008,1427
44.4658,1464
44.5308,1489
44.59581,1591
44.66081,1756
44.72581,1993
44.79081,2502
44.85581,3824
44.92081,6482
44.98581,11900
45.05082,14239
45.11582,9224
45.18082,4061
45.24582,2501
45.31082,2035
45.37582,1818
45.44082,1638
45.50583,1569
45.57083,1490
45.63583,1432
45.70083,1399
45.76583,1343
45.83083,1319
45.89583,1298
45.96084,1314
46.02584,1278
46.09084,1281
46.15584,1287
46.22084,1270
46.28584,1250
46.35084,1256
46.41585,1268
46.48085,1258
46.54585,1265
46.61085,1255
46.67585,1247
46.74085,1281
46.80585,1214
46.87086,1254
46.93586,1259
47.00086,1257
47.06586,1236
47.13086,1269
47.19586,1246
47.26086,1270
47.32587,1236
47.39087,1246
47.45587,1220
47.52087,1229
47.58587,1231
47.65087,1251
47.71587,1238
47.78088,1243
47.84588,1239
47.91088,1235
47.97588,1246
48.04088,1261
48.10588,1263
48.17088,1266
48.23589,1253
48.30089,1240
48.36589,1233
48.43089,1256
48.49589,1271
48.56089,1300
48.62589,1302
48.6909,1262
48.7559,1247
48.8209,1228
48.8859,1255
48.9509,1241
49.0159,1229
49.0809,1209
49.14591,1235
49.21091,1232
49.27591,1237
49.34091,1210
49.40591,1216
49.47091,1210
49.53591,1223
49.60092,1221
49.66592,1243
49.73092,1217
49.79592,1213
49.86092,1228
49.92592,1218
49.99092,1198
50.05593,1206
50.12093,1226
50.18593,1222
50.25093,1204
50.31593,1209
50.38093,1226
50.44593,1194
50.51094,1208
50.57594,1215
50.64094,1246
50.70594,1226
50.77094,1219
50.83594,1200
50.90094,1209
50.96595,1215
51.03095,1187
51.09595,1213
51.16095,1243
51.22595,1218
51.29095,1199
51.35595,1227
51.42096,1225
51.48596,1213
51.55096,1236
51.61596,1211
51.68096,1217
51.74596,1200
51.81096,1220
51.87597,1239
51.94097,1237
52.00597,1223
52.07097,1239
52.13597,1234
52.20097,1232
52.26597,1221
52.33098,1245
52.39598,1279
52.46098,1262
52.52598,1267
52.59098,1286
52.65598,1315
52.72098,1322
52.78599,1372
52.85099,1394
52.91599,1458
52.98099,1543
53.04599,1709
53.11099,2087
53.17599,2938
53.241,4880
53.306,7441
53.371,6782
53.436,5134
53.501,3475
53.566,2168
53.631,1712
53.69601,1566
53.76101,1486
53.82601,1435
53.89101,1362
53.95601,1333
54.02101,1343
54.08601,1339
54.15102,1264
54.21602,1268
54.28102,1251
54.34602,1243
54.41102,1226
54.47602,1214
54.54102,1210
54.60603,1232
54.67103,1214
54.73603,1192
54.80103,1204
54.86603,1193
54.93103,1203
54.99603,1198
55.06104,1189
55.12604,1184
55.19104,1160
55.25604,1177
55.32104,1166
55.38604,1182
55.45104,1162
55.51605,1185
55.58105,1197
55.64605,1156
55.71105,1176
55.77605,1164
55.84105,1169
55.90605,1172
55.97106,1157
56.03606,1179
56.10106,1168
56.16606,1136
56.23106,1162
56.29606,1157
56.36106,1156
56.42607,1168
56.49107,1174
56.55607,1167
56.62107,1184
56.68607,1164
56.75107,1152
56.81607,1175
56.88108,1153
56.94608,1182
57.01108,1161
57.07608,1182
57.14108,1167
57.20608,1162
57.27108,1162
57.33609,1152
57.40109,1166
57.46609,1178
57.53109,1175
57.59609,1161
57.66109,1157
57.72609,1166
57.7911,1167
57.8561,1143
57.9211,1158
57.9861,1154
58.0511,1136
58.1161,1148
58.1811,1159
58.24611,1154
58.31111,1164
58.37611,1166
58.44111,1156
58.50611,1159
58.57111,1147
58.63611,1183
58.70112,1151
58.76612,1168
58.83112,1169
58.89612,1155
58.96112,1167
59.02612,1166
59.09112,1150
59.15613,1168
59.22113,1161
59.28613,1148
59.35113,1151
59.41613,1156
59.48113,1139
59.54613,1190
59.61114,1146
59.67614,1161
59.74114,1174
59.80614,1148
59.87114,1144
59.93614,1161
60.00114,1162
60.06615,1149
60.13115,1155
60.19615,1138
60.26115,1156
60.32615,1141
60.39115,1131
60.45615,1168
60.52116,1162
60.58616,1144
60.65116,1142
60.71616,1150
60.78116,1176
60.84616,1155
60.91116,1161
60.97617,1166
61.04117,1163
61.10617,1150
61.17117,1159
61.23617,1159
61.30117,1168
61.36617,1176
61.43118,1137
61.49618,1166
61.56118,1148
61.62618,1134
61.69118,1144
61.75618,1151
61.82118,1149
61.88619,1160
61.95119,1140
62.01619,1145
62.08119,1164
62.14619,1148
62.21119,1151
62.27619,1154
62.3412,1139
62.4062,1157
62.4712,1136
62.5362,1151
62.6012,1146
62.6662,1147
62.7312,1165
62.79621,1140
62.86121,1153
62.92621,1147
62.99121,1156
63.05621,1155
63.12121,1135
63.18621,1173
63.25122,1169
63.31622,1144
63.38122,1170
63.44622,1162
63.51122,1162
63.57622,1186
63.64122,1173
63.70623,1197
63.77123,1214
63.83623,1246
63.90123,1216
63.96623,1166
64.03123,1168
64.09623,1176
64.16124,1180
64.22624,1175
64.29124,1165
64.35624,1163
64.42124,1152
64.48624,1165
64.55124,1158
64.61625,1171
64.68125,1186
64.74625,1172
64.81125,1162
64.87625,1178
64.94125,1217
65.00625,1204
65.07126,1205
65.13626,1248
65.20126,1274
65.26626,1298
65.33126,1421
65.39626,1673
65.46126,2151
65.52627,2346
65.59127,1991
65.65627,1846
65.72127,1816
65.78627,1658
65.85127,1359
65.91627,1270
65.98128,1224
66.04628,1224
66.11128,1185
66.17628,1168
66.24128,1172
66.30628,1158
66.37128,1163
66.43629,1178
66.50129,1161
66.56629,1164
66.63129,1157
66.69629,1165
66.76129,1149
66.82629,1168
66.8913,1143
66.9563,1146
67.0213,1153
67.0863,1148
67.1513,1152
67.2163,1144
67.2813,1150
67.34631,1153
67.41131,1148
67.47631,1159
67.54131,1162
67.60631,1167
67.67131,1137
67.73631,1160
67.80132,1174
67.86632,1202
67.93132,1183
67.99632,1177
68.06132,1178
68.12632,1150
68.19132,1179
68.25633,1192
68.32133,1181
68.38633,1191
68.45133,1215
68.51633,1206
68.58133,1199
68.64633,1178
68.71134,1151
68.77634,1163
68.84134,1159
68.90634,1157
68.97134,1175
69.03634,1148
69.10134,1153
69.16635,1155
69.23135,1156
69.29635,1160
69.36135,1150
69.42635,1136
69.49135,1156
69.55635,1158
69.62136,1167
69.68636,1156
69.75136,1129
69.81636,1154
69.88136,1165
69.94636,1165
70.01136,1152
70.07637,1172
70.14137,1141
70.20637,1174
70.27137,1171
70.33637,1158
70.40137,1158
70.46637,1158
70.53138,1167
70.59638,1151
70.66138,1162
70.72638,1164
70.79138,1179
70.85638,1149
70.92138,1160
70.98639,1148
71.05139,1180
71.11639,1158
71.18139,1174
71.24639,1170
71.31139,1179
71.37639,1172
71.4414,1203
71.5064,1173
71.5714,1197
71.6364,1182
71.7014,1203
71.7664,1233
71.8314,1240
71.89641,1268
71.96141,1317
72.02641,1367
72.09141,1536
72.15641,1929
72.22141,2581
72.28641,3194
72.35142,3334
72.41642,2772
72.48142,1877
72.54642,1523
72.61142,1373
72.67642,1361
72.74142,1349
72.80643,1297
72.87143,1316
72.93643,1289
73.00143,1242
73.06643,1212
73.13143,1195
73.19643,1195
73.26144,1171
73.32644,1176
73.39144,1194
73.45644,1180
73.52144,1194
73.58644,1150
73.65144,1166
73.71645,1166
73.78145,1172
73.84645,1196
73.91145,1166
73.97645,1155
74.04145,1155
74.10645,1168
74.17146,1157
74.23646,1189
74.30146,1153
74.36646,1156
74.43146,1162
74.49646,1158
74.56146,1149
74.62647,1162
74.69147,1149
74.75647,1146
74.82147,1151
74.88647,1145
74.95147,1155
75.01647,1162
75.08148,1149
75.14648,1142
75.21148,1139
75.27648,1152
75.34148,1138
75.40648,1159
75.47148,1149
75.53649,1149
75.60149,1166
75.66649,1150
75.73149,1148
75.79649,1164
75.86149,1145
75.92649,1148
75.9915,1164
76.0565,1168
76.1215,1156
76.1865,1162
76.2515,1170
76.3165,1155
76.3815,1154
76.44651,1158
76.51151,1152
76.57651,1154
76.64151,1178
76.70651,1172
76.77151,1180
76.83651,1174
76.90152,1173
76.96652,1163
77.03152,1171
77.09652,1144
77.16152,1182
77.22652,1174
77.29152,1178
77.35653,1176
77.42153,1198
77.48653,1178
77.55153,1154
77.61653,1161
77.68153,1194
77.74653,1144
77.81154,1161
77.87654,1163
77.94154,1181
78.00654,1161
78.07154,1154
78.13654,1178
78.20154,1144
78.26655,1147
78.33155,1173
78.39655,1157
78.46155,1159
78.52655,1169
78.59155,1159
78.65655,1171
78.72156,1161
78.78656,1166
78.85156,1153
78.91656,1146
78.98156,1159
79.04656,1152
79.11156,1149
79.17657,1155
79.24157,1177
79.30657,1160
79.37157,1149
79.43657,1166
79.50157,1174
79.56657,1163
79.63158,1153
79.69658,1182
79.76158,1166
79.82658,1181
79.89158,1155
79.95658,1174
80.02158,1149
80.08659,1152
80.15159,1164
80.21659,1159
80.28159,1165
80.34659,1164
80.41159,1175
80.47659,1169
80.5416,1188
80.6066,1170
80.6716,1165
80.7366,1186
80.8016,1156
80.8666,1167
80.9316,1163
80.99661,1163
81.06161,1183
81.12661,1186
81.19161,1188
81.25661,1179
81.32161,1179
81.38661,1193
81.45162,1216
81.51662,1193
81.58162,1212
81.64662,1176
81.71162,1182
81.77662,1194
81.84162,1195
81.90663,1222
81.97163,1186
82.03663,1188
82.10163,1179
82.16663,1236
82.23163,1233
82.29663,1225
82.36164,1249
82.42664,1253
82.49164,1279
82.55664,1280
82.62164,1310
82.68664,1389
82.75164,1459
82.81665,1617
82.88165,1940
82.94665,2534
83.01165,3674
83.07665,3815
83.14165,3216
83.20665,2731
83.27166,2073
83.33666,1694
83.40166,1463
83.46666,1379
83.53166,1339
83.59666,1300
83.66166,1259
83.72667,1247
83.79167,1245
83.85667,1225
83.92167,1216
83.98667,1205
84.05167,1210
84.11667,1186
84.18168,1181
84.24668,1210
84.31168,1211
84.37668,1202
84.44168,1192
84.50668,1184
84.57168,1187
84.63669,1176
84.70169,1201
84.76669,1207
84.83169,1211
84.89669,1178
84.96169,1194
85.02669,1185
85.0917,1195
85.1567,1175
85.2217,1193
85.2867,1186
85.3517,1193
85.4167,1202
85.4817,1217
85.54671,1204
85.61171,1232
85.67671,1223
85.74171,1205
85.80671,1214
85.87171,1210
85.93671,1211
86.00172,1206
86.06672,1196
86.13172,1192
86.19672,1180
86.26172,1197
86.32672,1183
86.39172,1177
86.45673,1183
86.52173,1184
86.58673,1196
86.65173,1185
86.71673,1169
86.78173,1162
86.84673,1176
86.91174,1164
86.97674,1196
87.04174,1177
87.10674,1192
87.17174,1175
87.23674,1175
87.30174,1190
87.36675,1170
87.43175,1203
87.49675,1190
87.56175,1176
87.62675,1170
87.69175,1193
87.75675,1186
87.82176,1191
87.88676,1183
87.95176,1187
88.01676,1191
88.08176,1211
88.14676,1181
88.21176,1190
88.27677,1226
88.34177,1179
88.40677,1168
88.47177,1198
88.53677,1202
88.60177,1243
88.66677,1232
88.73178,1235
88.79678,1234
88.86178,1257
88.92678,1291
88.99178,1344
89.05678,1410
89.12178,1619
89.18679,1878
89.25179,2247
89.31679,2373
89.38179,2286
89.44679,2027
89.51179,1827
89.57679,1736
89.6418,1599
89.7068,1454
89.7718,1350
89.8368,1290
89.9018,1286
89.9668,1261
90.0318,1241
90.09681,1230
90.16181,1191
90.22681,1186
90.29181,1203
90.35681,1192
90.42181,1188
90.48681,1177
90.55182,1189
90.61682,1170
90.68182,1179
90.74682,1167
90.81182,1188
90.87682,1181
90.94182,1176
91.00683,1154
91.07183,1166
91.13683,1184
91.20183,1174
91.26683,1186
91.33183,1179
91.39683,1162
91.46184,1168
91.52684,1162
91.59184,1168
91.65684,1167
91.72184,1156
91.78684,1168
91.85184,1150
91.91685,1160
91.98185,1144
92.04685,1167
92.11185,1177
92.17685,1166
92.24185,1148
92.30685,1172
92.37186,1178
92.43686,1172
92.50186,1169
92.56686,1160
92.63186,1158
92.69686,1153
92.76186,1162
92.82687,1178
92.89187,1162
92.95687,1162
93.02187,1166
93.08687,1160
93.15187,1172
93.21687,1171
93.28188,1175
93.34688,1178
93.41188,1149
93.47688,1165
93.54188,1175
93.60688,1184
93.67188,1181
93.73689,1207
93.80189,1206
93.86689,1205
93.93189,1215
93.99689,1226
94.06189,1214
94.12689,1210
94.1919,1193
94.2569,1188
94.3219,1182
94.3869,1171
94.4519,1178
94.5169,1174
94.5819,1177
94.64691,1154
94.71191,1162
94.77691,1164
94.84191,1178
94.90691,1169
94.97191,1178
95.03691,1154
95.10192,1175
95.16692,1175
95.23192,1155
95.29692,1169
95.36192,1164
95.42692,1151
95.49192,1181
95.55693,1172
95.62193,1154
95.68693,1155
95.75193,1164
95.81693,1195
95.88193,1157
95.94693,1164
96.01194,1175
96.07694,1172
96.14194,1178
96.20694,1153
96.27194,1146
96.33694,1164
96.40194,1177
96.46695,1167
96.53195,1168
96.59695,1162
96.66195,1168
96.72695,1159
96.79195,1159
96.85695,1152
96.92196,1174
96.98696,1181
97.05196,1164
97.11696,1168
97.18196,1158
97.24696,1170
97.31196,1155
97.37697,1155
97.44197,1167
97.50697,1183
97.57197,1197
97.63697,1178
97.70197,1153
97.76697,1159
97.83198,1196
97.89698,1180
97.96198,1179
98.02698,1167
98.09198,1181
98.15698,1199
98.22198,1223
98.28699,1188
98.35199,1187
98.41699,1200
98.48199,1174
98.54699,1193
98.61199,1196
98.67699,1196
98.742,1201
98.807,1189
98.872,1169
98.937,1197
99.002,1192
99.067,1170
99.132,1194
99.19701,1192
99.26201,1219
99.32701,1190
99.39201,1224
99.45701,1246
99.52201,1303
99.58701,1324
99.65202,1463
99.71702,1619
99.78202,1712
99.84702,1775
99.91202,1848
99.97702,1847
100.002,1794