File: data/xrd_icdd_PDF/00-060-0761 (PD3).csv
5.0066,4418
5.0976,3678
5.1886,3157
5.2796,2691
5.3706,2466
5.4616,2274
5.5526,2097
5.6436,1972
5.7346,1812
5.8256,1811
5.9166,1702
6.0076,1658
6.0986,1711
6.1896,1705
6.2806,1759
6.3716,1853
6.4626,1947
6.5536,2135
6.6446,2244
6.7356,2373
6.8266,2556
6.9176,2630
7.0086,2618
7.0996,2559
7.1906,2395
7.2816,2141
7.3726,1831
7.4636,1547
7.5546,1316
7.6456,1049
7.7366,861
7.8276,699
7.9186,642
8.0096,534
8.1006,460
8.1916,432
8.2826,365
8.3736,318
8.4646,315
8.5556,305
8.6466,320
8.7376,274
8.8286,270
8.9196,233
9.0106,225
9.1016,234
9.1926,216
9.2836,227
9.3746,244
9.4656,222
9.5566,209
9.6476,211
9.7386,211
9.8296,251
9.9206,236
10.0116,221
10.1026,213
10.1936,199
10.2846,191
10.3756,221
10.4666,240
10.5576,212
10.6486,225
10.7396,237
10.8306,212
10.9216,227
11.0126,228
11.1036,227
11.1946,236
11.2856,223
11.3766,243
11.4676,225
11.5586,222
11.6496,238
11.7406,227
11.8316,252
11.9226,257
12.0136,223
12.1046,246
12.1956,236
12.2866,221
12.3776,224
12.4686,245
12.5596,223
12.6506,226
12.7416,265
12.8326,234
12.9236,214
13.0146,270
13.1056,252
13.1966,243
13.2876,247
13.3786,256
13.4696,281
13.5606,272
13.6516,270
13.7426,274
13.8336,287
13.9246,305
14.0156,282
14.1066,346
14.1976,309
14.2886,317
14.3796,323
14.4706,331
14.5616,324
14.6526,303
14.7436,312
14.8346,322
14.9256,344
15.0166,310
15.1076,348
15.1986,336
15.2896,345
15.3806,333
15.4716,347
15.5626,341
15.6536,314
15.7446,346
15.8356,341
15.9266,367
16.0176,371
16.1086,375
16.1996,658
16.2906,772
16.3816,419
16.4726,433
16.5636,380
16.6546,399
16.7456,383
16.8366,423
16.9276,407
17.0186,375
17.1096,384
17.2006,377
17.2916,504
17.3826,750
17.4736,405
17.5646,359
17.6556,365
17.7466,364
17.8376,357
17.9286,340
18.0196,350
18.1106,376
18.2016,332
18.2926,401
18.3836,584
18.4746,856
18.5656,422
18.6566,353
18.7476,350
18.8386,362
18.9296,363
19.0206,339
19.1116,353
19.2026,364
19.2936,351
19.3846,366
19.4756,359
19.5666,359
19.6576,366
19.7486,345
19.8396,355
19.9306,339
20.0216,343
20.1126,354
20.2036,354
20.2946,344
20.3856,368
20.4766,360
20.5676,444
20.6586,350
20.7496,373
20.8406,389
20.9316,383
21.0226,373
21.1136,375
21.2046,360
21.2956,366
21.3866,365
21.4776,341
21.5686,343
21.6596,372
21.7506,363
21.8416,354
21.9326,370
22.0236,346
22.1146,379
22.2056,357
22.2966,340
22.3876,368
22.4786,368
22.5696,348
22.6606,370
22.7516,371
22.8426,408
22.9336,430
23.0246,442
23.1156,378
23.2066,372
23.2976,366
23.3886,414
23.4796,353
23.5706,327
23.6616,421
23.7526,632
23.8436,1153
23.9346,678
24.0256,423
24.1166,393
24.2076,383
24.2986,396
24.3896,388
24.4806,379
24.5716,364
24.6626,398
24.7536,413
24.8446,395
24.9356,410
25.0266,422
25.1176,405
25.2086,422
25.2996,415
25.3906,432
25.4816,418
25.5726,417
25.6636,417
25.7546,393
25.8456,398
25.9366,407
26.0276,444
26.1186,431
26.2096,422
26.3006,427
26.3916,440
26.4826,432
26.5736,413
26.6646,409
26.7556,422
26.8466,418
26.9376,433
27.0286,446
27.1196,449
27.2106,434
27.3016,401
27.3926,392
27.4836,458
27.5746,424
27.6656,457
27.7566,447
27.8476,483
27.9386,449
28.0296,479
28.1206,576
28.2116,1022
28.3026,5473
28.3936,3528
28.4846,771
28.5756,581
28.6666,467
28.7576,466
28.8486,439
28.9396,466
29.0306,473
29.1216,702
29.2126,809
29.3036,542
29.3946,455
29.4856,425
29.5766,508
29.6676,459
29.7586,478
29.8496,482
29.9406,434
30.0316,489
30.1226,486
30.2136,485
30.3046,472
30.3956,475
30.4866,477
30.5776,504
30.6686,623
30.7596,756
30.8506,3325
30.9416,8662
31.0326,3502
31.1236,800
31.2146,539
31.3056,501
31.3966,467
31.4876,454
31.5786,481
31.6696,465
31.7606,462
31.8516,486
31.9426,480
32.0336,466
32.1246,439
32.2156,492
32.3066,454
32.3976,494
32.4886,486
32.5796,562
32.6706,933
32.7616,1320
32.8526,1132
32.9436,647
33.0346,579
33.1256,693
33.2166,1398
33.3076,2818
33.3986,9891
33.4896,4891
33.5806,990
33.6716,699
33.7626,863
33.8536,1185
33.9446,5834
34.0356,6032
34.1266,2112
34.2176,765
34.3086,542
34.3996,530
34.4906,502
34.5816,473
34.6726,466
34.7636,468
34.8546,528
34.9456,525
35.0366,1249
35.1276,1251
35.2186,731
35.3096,513
35.4006,488
35.4916,497
35.5826,449
35.6736,469
35.7646,458
35.8556,484
35.9466,535
36.0376,475
36.1286,458
36.2196,450
36.3106,440
36.4016,447
36.4926,443
36.5836,454
36.6746,438
36.7656,454
36.8566,419
36.9476,433
37.0386,430
37.1296,438
37.2206,465
37.3116,887
37.4026,756
37.4936,529
37.5846,484
37.6756,449
37.7666,458
37.8576,403
37.9486,450
38.0396,447
38.1306,430
38.2216,450
38.3126,429
38.4036,454
38.4946,461
38.5856,433
38.6766,455
38.7676,499
38.8586,1218
38.9496,891
39.0406,552
39.1316,426
39.2226,443
39.3136,423
39.4046,435
39.4956,437
39.5866,434
39.6776,443
39.7686,423
39.8596,445
39.9506,439
40.0416,452
40.1326,448
40.2236,437
40.3146,470
40.4056,498
40.4966,448
40.5876,446
40.6786,509
40.7696,754
40.8606,673
40.9516,527
41.0426,451
41.1336,435
41.2246,450
41.3156,444
41.4066,465
41.4976,435
41.5886,456
41.6796,444
41.7706,452
41.8616,445
41.9526,477
42.0436,442
42.1346,451
42.2256,464
42.3166,518
42.4076,972
42.4986,851
42.5896,533
42.6806,485
42.7716,494
42.8626,440
42.9536,462
43.0446,459
43.1356,452
43.2266,463
43.3176,463
43.4086,462
43.4996,482
43.5906,481
43.6816,459
43.7726,451
43.8636,486
43.9546,472
44.0456,440
44.1366,419
44.2276,441
44.3186,477
44.4096,464
44.5006,460
44.5916,430
44.6826,500
44.7736,634
44.8646,551
44.9556,482
45.0466,469
45.1376,457
45.2286,458
45.3196,475
45.4106,431
45.5016,438
45.5926,474
45.6836,481
45.7746,513
45.8656,460
45.9566,485
46.0476,501
46.1386,463
46.2296,465
46.3206,451
46.4116,475
46.5026,497
46.5936,466
46.6846,496
46.7756,562
46.8666,723
46.9576,616
47.0486,500
47.1396,507
47.2306,508
47.3216,606
47.4126,1568
47.5036,1209
47.5946,979
47.6856,594
47.7766,467
47.8676,511
47.9586,483
48.0496,487
48.1406,442
48.2316,536
48.3226,444
48.4136,508
48.5046,703
48.5956,676
48.6866,688
48.7776,587
48.8686,529
48.9596,495
49.0506,456
49.1416,461
49.2326,483
49.3236,490
49.4146,520
49.5056,493
49.5966,469
49.6876,506
49.7786,509
49.8696,536
49.9606,562
50.0516,1297
50.1426,1042
50.2336,1300
50.3246,611
50.4156,503
50.5066,485
50.5976,484
50.6886,480
50.7796,499
50.8706,509
50.9616,497
51.0526,545
51.1436,471
51.2346,472
51.3256,528
51.4166,552
51.5076,610
51.5986,683
51.6896,1961
51.7806,3471
51.8716,2754
51.9626,1151
52.0536,617
52.1446,509
52.2356,515
52.3266,530
52.4176,489
52.5086,524
52.5996,498
52.6906,507
52.7816,537
52.8726,507
52.9636,490
53.0546,520
53.1456,578
53.2366,655
53.3276,1025
53.4186,2708
53.5096,1762
53.6006,1073
53.6916,959
53.7826,780
53.8736,901
53.9646,582
54.0556,484
54.1466,491
54.2376,498
54.3286,540
54.4196,516
54.5106,475
54.6016,475
54.6926,482
54.7836,491
54.8746,485
54.9656,462
55.0566,454
55.1476,480
55.2386,460
55.3296,479
55.4206,496
55.5116,494
55.6026,493
55.6936,493
55.7846,543
55.8756,610
55.9666,640
56.0576,1067
56.1486,4465
56.2396,1722
56.3306,1692
56.4216,723
56.5126,1013
56.6036,654
56.6946,644
56.7856,514
56.8766,515
56.9676,483
57.0586,522
57.1496,530
57.2406,578
57.3316,986
57.4226,582
57.5136,673
57.6046,600
57.6956,521
57.7866,513
57.8776,478
57.9686,480
58.0596,512
58.1506,522
58.2416,579
58.3326,679
58.4236,911
58.5146,4241
58.6056,1733
58.6966,2376
58.7876,903
58.8786,608
58.9696,500
59.0606,542
59.1516,536
59.2426,504
59.3336,446
59.4246,482
59.5156,511
59.6066,460
59.6976,548
59.7886,517
59.8796,499
59.9706,488
60.0616,451
60.1526,480
60.2436,482
60.3346,468
60.4256,490
60.5166,490
60.6076,479
60.6986,474
60.7896,464
60.8806,471
60.9716,471
61.0626,494
61.1536,502
61.2446,459
61.3356,539
61.4266,458
61.5176,584
61.6086,489
61.6996,509
61.7906,524
61.8816,580
61.9726,546
62.0636,517
62.1546,513
62.2456,467
62.3366,475
62.4276,490
62.5186,510
62.6096,472
62.7006,477
62.7916,458
62.8826,496
62.9736,439
63.0646,450
63.1556,486
63.2466,496
63.3376,450
63.4286,481
63.5196,487
63.6106,500
63.7016,491
63.7926,531
63.8836,503
63.9746,629
64.0656,1065
64.1566,683
64.2476,893
64.3386,1137
64.4296,1175
64.5206,924
64.6116,830
64.7026,540
64.7936,465
64.8846,488
64.9756,450
65.0666,485
65.1576,519
65.2486,479
65.3396,456
65.4306,479
65.5216,502
65.6126,510
65.7036,415
65.7946,520
65.8856,489
65.9766,501
66.0676,517
66.1586,727
66.2496,546
66.3406,632
66.4316,524
66.5226,476
66.6136,520
66.7046,466
66.7956,484
66.8866,478
66.9776,466
67.0686,460
67.1596,484
67.2506,480
67.3416,517
67.4326,550
67.5236,627
67.6146,1465
67.7056,1158
67.7966,966
67.8876,892
67.9786,571
68.0696,521
68.1606,499
68.2516,481
68.3426,554
68.4336,496
68.5246,543
68.6156,473
68.7066,600
68.7976,500
68.8886,548
68.9796,515
69.0706,527
69.1616,517
69.2526,508
69.3436,743
69.4346,1173
69.5256,629
69.6166,893
69.7076,629
69.7986,564
69.8896,558
69.9806,645
70.0716,1122
70.1626,599
70.2536,779
70.3446,601
70.4356,475
70.5266,470
70.6176,482
70.7086,420
70.7996,463
70.8906,463
70.9816,477
71.0726,515
71.1636,467
71.2546,506
71.3456,502
71.4366,522
71.5276,504
71.6186,488
71.7096,648
71.8006,688
71.8916,539
71.9826,637
72.0736,498
72.1646,485
72.2556,509
72.3466,501
72.4376,564
72.5286,585
72.6196,528
72.7106,557
72.8016,503
72.8926,521
72.9836,491
73.0746,493
73.1656,493
73.2566,486
73.3476,452
73.4386,563
73.5296,507
73.6206,536
73.7116,482
73.8026,518
73.8936,492
73.9846,499
74.0756,538
74.1666,483
74.2576,490
74.3486,490
74.4396,494
74.5306,473
74.6216,522
74.7126,500
74.8036,505
74.8946,544
74.9856,515
75.0766,524
75.1676,483
75.2586,476
75.3496,505
75.4406,480
75.5316,489
75.6226,486
75.7136,521
75.8046,504
75.8956,529
75.9866,494
76.0776,541
76.1686,535
76.2596,489
76.3506,573
76.4416,879
76.5326,627
76.6236,654
76.7146,599
76.8056,508
76.8966,480
76.9876,508
77.0786,488
77.1696,464
77.2606,501
77.3516,473
77.4426,524
77.5336,501
77.6246,472
77.7156,499
77.8066,509
77.8976,523
77.9886,536
78.0796,501
78.1706,503
78.2616,516
78.3526,534
78.4436,552
78.5346,780
78.6256,567
78.7166,562
78.8076,601
78.8986,514
78.9896,516
79.0806,518
79.1716,507
79.2626,512
79.3536,506
79.4446,507
79.5356,528
79.6266,506
79.7176,526
79.8086,489
79.8996,475
79.9906,496
80.0816,527
80.1726,503
80.2636,533
80.3546,555
80.4456,711
80.5366,906
80.6276,701
80.7186,720
80.8096,777
80.9006,604
80.9916,616
81.0826,1248
81.1736,623
81.2646,608
81.3556,760
81.4466,560
81.5376,522
81.6286,554
81.7196,553
81.8106,876
81.9016,936
81.9926,599
82.0836,834
82.1746,654
82.2656,517
82.3566,513
82.4476,537
82.5386,511
82.6296,521
82.7206,512
82.8116,532
82.9026,554
82.9936,549
83.0846,633
83.1756,1349
83.2666,804
83.3576,861
83.4486,1529
83.5396,703
83.6306,725
83.7216,767
83.8126,559
83.9036,529
83.9946,500
84.0856,516
84.1766,478
84.2676,501
84.3586,505
84.4496,509
84.5406,502
84.6316,518
84.7226,515
84.8136,513
84.9046,521
84.9956,517
85.0866,530
85.1776,512
85.2686,535
85.3596,717
85.4506,1077
85.5416,603
85.6326,649
85.7236,936
85.8146,603
85.9056,531
85.9966,594
86.0876,502
86.1786,573
86.2696,552
86.3606,525
86.4516,546
86.5426,503
86.6336,534
86.7246,533
86.8156,513
86.9066,503
86.9976,490
87.0886,513
87.1796,488
87.2706,519
87.3616,513
87.4526,493
87.5436,570
87.6346,559
87.7256,537
87.8166,534
87.9076,522
87.9986,492
88.0896,533
88.1806,573
88.2716,595
88.3626,502
88.4536,541
88.5446,569
88.6356,503
88.7266,506
88.8176,507
88.9086,520
88.9996,483
89.0906,511
89.1816,505
89.2726,484
89.3636,512
89.4546,517
89.5456,499
89.6366,493
89.7276,488
89.8186,506
89.9096,508
90.0006,509
90.0916,554
90.1826,683
90.2736,973
90.3646,611
90.4556,630
90.5466,805
90.6376,564
90.7286,517
90.8196,523
90.9106,528
91.0016,524
91.0926,528
91.1836,510
91.2746,462
91.3656,490
91.4566,502
91.5476,469
91.6386,513
91.7296,511
91.8206,515
91.9116,536
92.0026,513
92.0936,517
92.1846,530
92.2756,751
92.3666,588
92.4576,557
92.5486,832
92.6396,723
92.7306,554
92.8216,611
92.9126,616
93.0036,523
93.0946,520
93.1856,513
93.2766,477
93.3676,504
93.4586,510
93.5496,499
93.6406,481
93.7316,537
93.8226,522
93.9136,530
94.0046,496
94.0956,590
94.1866,653
94.2776,720
94.3686,561
94.4596,615
94.5506,592
94.6416,570
94.7326,585
94.8236,777
94.9146,570
95.0056,565
95.0966,592
95.1876,572
95.2786,546
95.3696,560
95.4606,522
95.5516,742
95.6426,641
95.7336,527
95.8246,576
95.9156,599
96.0066,537
96.0976,516
96.1886,525
96.2796,552
96.3706,587
96.4616,519
96.5526,562
96.6436,614
96.7346,569
96.8256,619
96.9166,793
97.0076,578
97.0986,606
97.1896,1017
97.2806,836
97.3716,608
97.4626,595
97.5536,786
97.6446,660
97.7356,567
97.8266,525
97.9176,570
98.0086,554
98.0996,518
98.1906,478
98.2816,492
98.3726,530
98.4636,492
98.5546,503
98.6456,510
98.7366,513
98.8276,509
98.9186,534
99.0096,554
99.1006,542
99.1916,559
99.2826,571
99.3736,556
99.4646,692
99.5556,549
99.6466,540
99.7376,566
99.8286,615
99.9196,561
100.0106,585
100.1016,558
100.1926,550
100.2836,561
100.3746,544
100.4656,520
100.5566,515
100.6476,520
100.7386,504
100.8296,541
100.9206,507
101.0116,510
101.1026,537
101.1936,511
101.2846,589
101.3756,664
101.4666,529
101.5576,538
101.6486,594
101.7396,622
101.8306,496
101.9216,548
102.0126,519
102.1036,554
102.1946,522
102.2856,481
102.3766,570
102.4676,534
102.5586,549
102.6496,506
102.7406,490
102.8316,527
102.9226,524
103.0136,520
103.1046,508
103.1956,503
103.2866,506
103.3776,519
103.4686,529
103.5596,508
103.6506,524
103.7416,511
103.8326,537
103.9236,534
104.0146,692
104.1056,743
104.1966,613
104.2876,561
104.3786,628
104.4696,659
104.5606,568
104.6516,547
104.7426,488
104.8336,582
104.9246,530
105.0156,508
105.1066,520
105.1976,548
105.2886,539
105.3796,537
105.4706,512
105.5616,513
105.6526,521
105.7436,543
105.8346,532
105.9256,493
106.0166,542
106.1076,559
106.1986,623
106.2896,527
106.3806,547
106.4716,545
106.5626,585
106.6536,550
106.7446,494
106.8356,545
106.9266,545
107.0176,779
107.1086,609
107.1996,544
107.2906,564
107.3816,639
107.4726,569
107.5636,535
107.6546,572
107.7456,552
107.8366,505
107.9276,545
108.0186,553
108.1096,595
108.2006,567
108.2916,551
108.3826,546
108.4736,534
108.5646,561
108.6556,484
108.7466,533
108.8376,533
108.9286,511
109.0196,529
109.1106,534
109.2016,560
109.2926,515
109.3836,523
109.4746,511
109.5656,698
109.6566,675
109.7476,554
109.8386,583
109.9296,551
110.0206,627
110.1116,551
110.2026,551
110.2936,574
110.3846,536
110.4756,524
110.5666,588
110.6576,571
110.7486,530
110.8396,522
110.9306,534
111.0216,557
111.1126,544
111.2036,558
111.2946,529
111.3856,517
111.4766,505
111.5676,531
111.6586,530
111.7496,570
111.8406,534
111.9316,541
112.0226,521
112.1136,552
112.2046,496
112.2956,554
112.3866,523
112.4776,568
112.5686,529
112.6596,547
112.7506,532
112.8416,542
112.9326,551
113.0236,541
113.1146,567
113.2056,605
113.2966,648
113.3876,942
113.4786,1035
113.5696,664
113.6606,586
113.7516,627
113.8426,836
113.9336,788
114.0246,600
114.1156,568
114.2066,637
114.2976,689
114.3886,668
114.4796,616
114.5706,585
114.6616,547
114.7526,644
114.8436,613
114.9346,560
115.0256,530
115.1166,524
115.2076,572
115.2986,580
115.3896,620
115.4806,581
115.5716,733
115.6626,985
115.7536,750
115.8446,677
115.9356,644
116.0266,659
116.1176,795
116.2086,644
116.2996,619
116.3906,578
116.4816,559
116.5726,562
116.6636,549
116.7546,542
116.8456,534
116.9366,530
117.0276,561
117.1186,561
117.2096,567
117.3006,561
117.3916,518
117.4826,605
117.5736,535
117.6646,574
117.7556,556
117.8466,569
117.9376,507
118.0286,589
118.1196,584
118.2106,563
118.3016,553
118.3926,581
118.4836,562
118.5746,551
118.6656,550
118.7566,668
118.8476,638
118.9386,648
119.0296,603
119.1206,590
119.2116,572
119.3026,608
119.3936,597
119.4846,571
119.5756,586
119.6666,555
119.7576,560
119.8486,559
119.9396,551
120.0306,573
120.1216,528
120.2126,541
120.3036,540
120.3946,566
120.4856,586
120.5766,574
120.6676,597
120.7586,573
120.8496,551
120.9406,606
121.0316,631
121.1226,690
121.2136,727
121.3046,625
121.3956,685
121.4866,928
121.5776,785
121.6686,673
121.7596,647
121.8506,648
121.9416,742
122.0326,1047
122.1236,803
122.2146,669
122.3056,591
122.3966,561
122.4876,682
122.5786,744
122.6696,650
122.7606,609
122.8516,589
122.9426,583
123.0336,578
123.1246,540
123.2156,589
123.3066,596
123.3976,671
123.4886,779
123.5796,704
123.6706,594
123.7616,593
123.8526,605
123.9436,643
124.0346,781
124.1256,890
124.2166,731
124.3076,664
124.3986,620
124.4896,604
124.5806,640
124.6716,737
124.7626,610
124.8536,656
124.9446,653
125.0356,748
125.1266,690
125.2176,655
125.3086,631
125.3996,604
125.4906,598
125.5816,645
125.6726,682
125.7636,623
125.8546,569
125.9456,583
126.0366,596
126.1276,545
126.2186,581
126.3096,582
126.4006,606
126.4916,608
126.5826,667
126.6736,989
126.7646,697
126.8556,628
126.9466,612
127.0376,603
127.1286,648
127.2196,796
127.3106,742
127.4016,631
127.4926,632
127.5836,674
127.6746,865
127.7656,741
127.8566,706
127.9476,712
128.0386,610
128.1296,656
128.2206,695
128.3116,654
128.4026,645
128.4936,635
128.5846,574
128.6756,580
128.7666,584
128.8576,596
128.9486,565
129.0396,555
129.1306,599
129.2216,597
129.3126,565
129.4036,606
129.4946,586
129.5856,590
129.6766,583
129.7676,575
129.8586,603
129.9496,646
130.0406,617
130.1316,599
130.2226,603
130.3136,623
130.4046,636
130.4956,776
130.5866,924
130.6776,689
130.7686,671
130.8596,717
130.9506,611
131.0416,648
131.1326,699
131.2236,711
131.3146,660
131.4056,648
131.4966,628
131.5876,610
131.6786,605
131.7696,598
131.8606,604
131.9516,660
132.0426,672
132.1336,669
132.2246,639
132.3156,641
132.4066,788
132.4976,656
132.5886,650
132.6796,653
132.7706,594
132.8616,615
132.9526,616
133.0436,673
133.1346,654
133.2256,630
133.3166,589
133.4076,623
133.4986,587
133.5896,568
133.6806,594
133.7716,583
133.8626,589
133.9536,603
134.0446,600
134.1356,592
134.2266,569
134.3176,587
134.4086,585
134.4996,591
134.5906,621
134.6816,593
134.7726,532
134.8636,607
134.9546,542
135.0456,589
135.1366,582
135.2276,576
135.3186,567
135.4096,610
135.5006,592
135.5916,566
135.6826,579
135.7736,617
135.8646,612
135.9556,614
136.0466,656
136.1376,718
136.2286,613
136.3196,632
136.4106,573
136.5016,580
136.5926,587
136.6836,602
136.7746,649
136.8656,631
136.9566,594
137.0476,585
137.1386,594
137.2296,603
137.3206,564
137.4116,607
137.5026,576
137.5936,632
137.6846,609
137.7756,581
137.8666,624
137.9576,602
138.0486,596
138.1396,630
138.2306,626
138.3216,591
138.4126,625
138.5036,622
138.5946,621
138.6856,614
138.7766,656
138.8676,590
138.9586,654
139.0496,712
139.1406,755
139.2316,680
139.3226,671
139.4136,666
139.5046,628
139.5956,641
139.6866,625
139.7776,694
139.8686,741
139.9596,678
139.9986,648