File: data/xrd_icdd_PDF/00-060-0223 (PD3).csv
4.77366,4008.86
4.83366,4034.27
4.89366,4061.91
4.95366,3924.26
5.01366,3935.4
5.07366,3932.92
5.13366,3924.89
5.19366,3913.42
5.25366,3911.59
5.31366,3912.71
5.37366,3897.47
5.43366,3906.63
5.49366,3897.15
5.55366,3890.17
5.61366,3881.4
5.67366,3864.81
5.73366,3880.5
5.79366,3876.81
5.85366,3877.53
5.91366,3883.48
5.97366,3855.46
6.03366,3873.22
6.09366,3870.01
6.15366,3862.72
6.21366,3856.12
6.27366,3845.42
6.33366,3843.5
6.39366,3845.73
6.45366,3839.99
6.51366,3832.16
6.57366,3819
6.63366,3835.34
6.69366,3842.52
6.75366,3844.97
6.81366,3824.3
6.87366,3827.51
6.93366,3826.03
6.99366,3816.42
7.05366,3826.68
7.11366,3827.25
7.17366,3815
7.23366,3816.99
7.29366,3812.81
7.35366,3817.83
7.41366,3824.32
7.47366,3820.82
7.53366,3815.54
7.59366,3857.65
7.65366,3791.72
7.71366,3802.26
7.77366,3802.25
7.83366,3799.48
7.89366,3799.74
7.95366,3799.69
8.01366,3785.93
8.07366,3800.8
8.13366,3797.35
8.19366,3807.45
8.25366,3794.45
8.31366,3789.41
8.37366,3781.61
8.43366,3782.69
8.49366,3783.1
8.55366,3773.9
8.61366,3772.43
8.67366,3790.3
8.73366,3786.11
8.79366,3791.5
8.85366,3769.72
8.91366,3790.56
8.97366,3780.66
9.03366,3776.88
9.09366,3768.06
9.15366,3780.37
9.21366,3778.15
9.27366,3774.67
9.33366,3766.87
9.39366,3773.64
9.45366,3767.96
9.51366,3773.35
9.57366,3765.22
9.63366,3774.12
9.69366,3760.68
9.75366,3776.93
9.81366,3764.99
9.87366,3758.06
9.93366,3761.45
9.99366,3763.54
10.05366,3769.61
10.11366,3775.57
10.17366,3756.89
10.23366,3756.83
10.29366,3756.18
10.35366,3768.04
10.41366,3762.53
10.47366,3767.97
10.53366,3761.43
10.59366,3764.52
10.65366,3756.01
10.71366,3739.13
10.77366,3747.47
10.83366,3772.03
10.89366,3774.18
10.95366,3766.06
11.01366,3767.25
11.07366,3757.8
11.13366,3752.83
11.19366,3748.13
11.25366,3747.96
11.31366,3744.55
11.37366,3748.12
11.43366,3747.82
11.49366,3755.14
11.55366,3757.8
11.61366,3768.78
11.67366,3766.29
11.73366,3752.17
11.79366,3743.57
11.85366,3748.89
11.91366,3740.73
11.97366,3744.26
12.03366,3755.61
12.09366,3736.98
12.15366,3729.14
12.21366,3733.69
12.27366,3737.58
12.33366,3745.81
12.39366,3759.07
12.45366,3731.79
12.51366,3743.24
12.57366,3743.97
12.63366,3735.53
12.69366,3734.45
12.75366,3751.86
12.81366,3757.84
12.87366,3733.82
12.93366,3734.42
12.99366,3747.05
13.05366,3754.24
13.11366,3744.85
13.17366,3739.9
13.23366,3735.43
13.29366,3756.91
13.35366,3749.17
13.41366,3729.4
13.47366,3723.52
13.53366,3745.34
13.59366,3756.87
13.65366,3737.78
13.71366,3725.89
13.77366,3739.81
13.83366,3728.02
13.89366,3736.88
13.95366,3739.08
14.01366,3734.876
14.07366,3734.15
14.13366,3724.8
14.19366,3736.58
14.25366,3735.33
14.31366,3722.61
14.37366,3728.67
14.43366,3730.38
14.49366,3735.12
14.55366,3776.11
14.61366,3717.95
14.67366,3732.29
14.73366,3711.66
14.79366,3732.26
14.85366,3745.39
14.91366,3730.07
14.97366,3723.89
15.03366,3715.09
15.09366,3736.92
15.15366,3750.02
15.21366,3762.64
15.27366,3727.72
15.33366,3733.89
15.39366,3724.38
15.45366,3740.99
15.51366,3720.01
15.57366,3711.42
15.63366,3742.57
15.69366,3740.08
15.75366,3733.22
15.81366,3739.34
15.87366,3730.02
15.93366,3732.14
15.99366,3743.99
16.05366,3734.2
16.11366,3725.64
16.17366,3712.62
16.23366,3700.2
16.29366,3763.09
16.35366,3719.59
16.41366,3735.68
16.47366,3716.25
16.53366,3728.32
16.59366,3719.14
16.65366,3713.54
16.71366,3723.58
16.77366,3721.14
16.83366,3736.3
16.89366,3729.06
16.95366,3729.63
17.01366,3746.59
17.07366,3740.92
17.13366,3697.19
17.19366,3750.04
17.25366,3749.82
17.31366,3833.13
17.37366,3963.94
17.43366,4749.19
17.49366,4651.58
17.55366,3841.73
17.61366,3723.03
17.67366,3691.19
17.73366,3674.46
17.79366,3745.15
17.85366,3737.33
17.91366,3726.91
17.97366,3723.54
18.03366,3711.51
18.09366,3724.73
18.15366,3730.49
18.21366,3724.94
18.27366,3722.06
18.33366,3721.47
18.39366,3742.58
18.45366,3738.79
18.51366,3734.78
18.57366,3720.14
18.63366,3737.16
18.69366,3723.61
18.75366,3727.64
18.81366,3714.55
18.87366,3716.66
18.93366,3721.82
18.99366,3716.88
19.05366,3733.61
19.11366,3726.11
19.17366,3717.38
19.23366,3709.4
19.29366,3729.05
19.35366,3722.12
19.41366,3708.05
19.47366,3709.01
19.53366,3711.95
19.59366,3713.11
19.65366,3729.88
19.71366,3711.38
19.77366,3725.47
19.83366,3727.39
19.89366,3726.23
19.95366,3718.88
20.01366,3735.48
20.07366,3725.35
20.13366,3709.33
20.19366,3712.89
20.25366,3725.3
20.31366,3730.67
20.37366,3718.25
20.43366,3702.58
20.49366,3699.78
20.55366,3723.42
20.61366,3704.83
20.67366,3722.67
20.73366,3728.04
20.79366,3711.16
20.85366,3723.17
20.91366,3721.33
20.97366,3722.73
21.03366,3727.66
21.09366,3728.62
21.15366,3702.52
21.21366,3731.22
21.27366,3727.24
21.33366,3734.63
21.39366,3700.8
21.45366,3723.26
21.51366,3740.11
21.57366,3723.37
21.63366,3717.79
21.69366,3711.66
21.75366,3710.46
21.81366,3720.36
21.87366,3729.76
21.93366,3725.28
21.99366,3724.03
22.05366,3709.16
22.11366,3714.72
22.17366,3721.88
22.23366,3722.86
22.29366,3727.63
22.35366,3729.61
22.41366,3717.84
22.47366,3723.94
22.53366,3724.53
22.59366,3720.76
22.65366,3699.95
22.71366,3711.12
22.77366,3721.71
22.83366,3716.09
22.89366,3705.85
22.95366,3712.17
23.01366,3729.98
23.07366,3724.94
23.13366,3734.36
23.19366,3722.18
23.25366,3710.79
23.31366,3714.03
23.37366,3710.46
23.43366,3721.12
23.49366,3710.62
23.55366,3733.34
23.61366,3723.69
23.67366,3721.91
23.73366,3726.48
23.79366,3711.38
23.85366,3716.84
23.91366,3705.38
23.97366,3710.9
24.03366,3706.12
24.09366,3722.5
24.15366,3715.16
24.21366,3733.59
24.27366,3721.57
24.33366,3718.5
24.39366,3846.76
24.45366,3796.15
24.51366,3938.18
24.57366,3890.17
24.63366,4180.88
24.69366,4896.61
24.75366,6921.46
24.81366,7718
24.87366,5523.78
24.93366,4259.57
24.99366,3880.93
25.05366,3753.25
25.11366,3777.28
25.17366,3846.84
25.23366,3710.26
25.29366,3779.76
25.35366,3696.53
25.41366,3708.89
25.47366,3693.55
25.53366,3714.85
25.59366,3702.16
25.65366,3703.61
25.71366,3706.26
25.77366,3703.68
25.83366,3709.79
25.89366,3709.79
25.95366,3723.04
26.01366,3714.44
26.07366,3711.96
26.13366,3713.4
26.19366,3707.82
26.25366,3708.87
26.31366,3751.03
26.37366,3900.84
26.43366,4034.56
26.49366,4599.05
26.55366,7008.88
26.61366,10246.5
26.67366,6917.8
26.73366,4305.55
26.79366,3861.86
26.85366,3721.59
26.91366,3738.75
26.97366,3738.42
27.03366,3627.12
27.09366,3726.88
27.15366,3628.77
27.21366,3689.07
27.27366,3692.94
27.33366,3695.41
27.39366,3699.78
27.45366,3694.47
27.51366,3700.31
27.57366,3700.11
27.63366,3716.91
27.69366,3708.44
27.75366,3720.96
27.81366,3716.77
27.87366,3719.49
27.93366,3732.11
27.99366,3730.51
28.05366,3700.428
28.11366,3717.96
28.17366,3720.41
28.23366,3714.71
28.29366,3728.83
28.35366,3737.95
28.41366,3728.45
28.47366,3740.15
28.53366,3716.96
28.59366,3703.24
28.65366,3709.27
28.71366,3702.62
28.77366,3708.81
28.83366,3685.13
28.89366,3699.44
28.95366,3713.15
29.01366,3701.51
29.07366,3713.34
29.13366,3721.57
29.19366,3717.28
29.25366,3662.75
29.31366,3772.09
29.37366,3878.96
29.43366,4210.13
29.49366,3980.45
29.55366,3698.28
29.61366,3676.59
29.67366,3720.45
29.73366,3677.58
29.79366,3721.63
29.85366,3668.5
29.91366,3709.93
29.97366,3728.58
30.03366,3706.67
30.09366,3706.89
30.15366,3714.59
30.21366,3712.83
30.27366,3709.68
30.33366,3718.558
30.39366,3694.4
30.45366,3715.91
30.51366,3716.4
30.57366,3709.77
30.63366,3714.96
30.69366,3717.05
30.75366,3718.8
30.81366,3714.65
30.87366,3722.99
30.93366,3711.67
30.99366,3737.77
31.05366,3711.35
31.11366,3709.1
31.17366,3709.45
31.23366,3703.1
31.29366,3709.44
31.35366,3726.39
31.41366,3727.27
31.47366,3715.22
31.53366,3725.68
31.59366,3734.71
31.65366,3728.01
31.71366,3719.53
31.77366,3716.91
31.83366,3709.08
31.89366,3702.74
31.95366,3709.21
32.01366,3718.19
32.07366,3712.86
32.13366,3704.02
32.19366,3699.91
32.25366,3723.54
32.31366,3726.13
32.37366,3726.55
32.43366,3717.3
32.49366,3725.03
32.55366,3708.7
32.61366,3721.41
32.67366,3732.36
32.73366,3715.23
32.79366,3705.2
32.85366,3705.73
32.91366,3698.9
32.97366,3697.57
33.03366,3688.54
33.09366,3708.64
33.15366,3716.61
33.21366,3701.2
33.27366,3703.29
33.33366,3719.52
33.39366,3713.05
33.45366,3707.05
33.51366,3715.41
33.57366,3707.52
33.63366,3703.85
33.69366,3713.8
33.75366,3702.34
33.81366,3705.2
33.87366,3697.35
33.93366,3700.71
33.99366,3695.94
34.05366,3697.6
34.11366,3687.06
34.17366,3648.47
34.23366,3695.43
34.29366,3617.35
34.35366,3747.92
34.41366,3622.64
34.47366,3706.76
34.53366,3640.8
34.59366,3661.41
34.65366,3645.59
34.71366,3604.53
34.77366,3682.04
34.83366,3644.61
34.89366,3663.34
34.95366,3711.7
35.01366,3686.07
35.07366,3701.29
35.13366,3709.87
35.19366,3933.01
35.25366,4725.48
35.31366,7861.78
35.37366,8303.24
35.43366,6539.53
35.49366,4557.75
35.55366,3968.71
35.61366,3766
35.67366,3768.5
35.73366,3665.99
35.79366,3701.54
35.85366,3735.35
35.91366,3707.56
35.97366,3706.69
36.03366,3724.83
36.09366,3731.29
36.15366,3728.52
36.21366,3776.28
36.27366,3785.81
36.33366,3964.99
36.39366,4121.16
36.45366,4477.81
36.51366,5241.17
36.57366,7329.48
36.63366,16164
36.69366,24146.5
36.75366,17464.2
36.81366,8824.05
36.87366,5581.25
36.93366,4363.75
36.99366,4262.59
37.05366,3992.82
37.11366,3944.66
37.17366,3842.74
37.23366,3782.64
37.29366,3756.98
37.35366,3721.55
37.41366,3716.15
37.47366,3712.11
37.53366,3666.67
37.59366,3712.3
37.65366,3713.3
37.71366,3719.52
37.77366,3716.78
37.83366,3711.57
37.89366,3714.65
37.95366,3720.44
38.01366,3707.19
38.07366,3715.39
38.13366,3715.67
38.19366,3709.56
38.25366,3702.46
38.31366,3700.19
38.37366,3701.15
38.43366,3690.69
38.49366,3689.05
38.55366,3717.12
38.61366,3733.43
38.67366,3726.88
38.73366,3726.92
38.79366,3733.11
38.85366,3731.56
38.91366,3730.08
38.97366,3729.72
39.03366,3741.57
39.09366,3733.12
39.15366,3803.69
39.21366,3799.64
39.27366,3862.31
39.33366,3872.63
39.39366,4032.17
39.45366,4255.82
39.51366,4974.91
39.57366,6260.32
39.63366,10508.8
39.69366,13147
39.75366,10609.5
39.81366,6968.4
39.87366,4909.41
39.93366,4263.13
39.99366,4030.01
40.05366,3851.77
40.11366,3849.9
40.17366,3792.63
40.23366,3801.27
40.29366,3751.25
40.35366,3670.81
40.41366,3745.3
40.47366,3745.69
40.53366,3713.66
40.59366,3719.43
40.65366,3712.86
40.71366,3706.56
40.77366,3701.88
40.83366,3706.22
40.89366,3701.45
40.95366,3701.56
41.01366,3720.76
41.07366,3706.81
41.13366,3688.04
41.19366,3694.41
41.25366,3701.02
41.31366,3706.06
41.37366,3702.88
41.43366,3697.86
41.49366,3704.93
41.55366,3700.52
41.61366,3706.6
41.67366,3723.84
41.73366,3730.47
41.79366,3692.51
41.85366,3714.37
41.91366,3712.92
41.97366,3713.8
42.03366,3732.13
42.09366,3729.54
42.15366,3716.75
42.21366,3715.85
42.27366,3724.24
42.33366,3718.5
42.39366,3734.61
42.45366,3727.24
42.51366,3927.36
42.57366,3891.7
42.63366,4017.85
42.69366,4259.14
42.75366,4833.72
42.81366,7224.89
42.87366,10494
42.93366,8109.08
42.99366,6564.25
43.05366,4547.23
43.11366,4305.31
43.17366,3817.17
43.23366,3848.35
43.29366,3828.77
43.35366,3788.38
43.41366,3737.95
43.47366,3712.02
43.53366,3788.82
43.59366,3809.54
43.65366,3803.3
43.71366,3759.07
43.77366,3714.25
43.83366,3708.1
43.89366,3702.51
43.95366,3699.98
44.01366,3704.94
44.07366,3701.71
44.13366,3708.45
44.19366,3713.67
44.25366,3708.43
44.31366,3713.95
44.37366,3713.52
44.43366,3715.29
44.49366,3744.32
44.55366,3697.76
44.61366,3829.53
44.67366,3916.12
44.73366,4324.88
44.79366,4502.17
44.85366,4268.37
44.91366,3964.31
44.97366,3761.74
45.03366,3735.92
45.09366,3745.15
45.15366,3707.37
45.21366,3735.4
45.27366,3679.7
45.33366,3773.64
45.39366,3697.07
45.45366,3749.59
45.51366,4072.44
45.57366,3930.795
45.63366,3914.143
45.69366,3757.43
45.75366,3649.35
45.81366,3694.19
45.87366,3756.91
45.93366,3665.5
45.99366,3711.71
46.05366,3712.67
46.11366,3762.9
46.17366,3858.04
46.23366,3841.52
46.29366,3775.09
46.35366,4223.25
46.41366,4318.13
46.47366,4664.9
46.53366,5484.31
46.59366,7227.47
46.65366,7382.01
46.71366,6589.81
46.77366,5178.57
46.83366,4328.31
46.89366,4032.13
46.95366,4106.42
47.01366,3923.61
47.07366,3935.67
47.13366,3775.11
47.19366,3847.31
47.25366,3827.17
47.31366,3803.89
47.37366,3723.43
47.43366,3719.84
47.49366,3717.77
47.55366,3719.99
47.61366,3719.25
47.67366,3738.98
47.73366,3739.52
47.79366,3872.39
47.85366,3910.23
47.91366,4214.09
47.97366,5101.02
48.03366,6778.61
48.09366,5586.99
48.15366,5137.27
48.21366,4235.2
48.27366,3953.22
48.33366,3802.13
48.39366,3768.14
48.45366,3826.68
48.51366,3730.82
48.57366,3792.25
48.63366,3726.73
48.69366,3650.93
48.75366,3649.61
48.81366,3707.37
48.87366,3702.28
48.93366,3698.91
48.99366,3696.37
49.05366,3698.92
49.11366,3706.14
49.17366,3694.52
49.23366,3704.57
49.29366,3696.5
49.35366,3711.79
49.41366,3706.43
49.47366,3697.92
49.53366,3716.75
49.59366,3722.28
49.65366,3719.43
49.71366,3718.438
49.77366,3710.28
49.83366,3692.85
49.89366,3757.39
49.95366,3720.15
50.01366,3713.61
50.07366,3710.4
50.13366,3716.58
50.19366,3714.7
50.25366,3718.34
50.31366,3716
50.37366,3705.77
50.43366,3700.25
50.49366,3705.99
50.55366,3712
50.61366,3709.26
50.67366,3719.18
50.73366,3708.16
50.79366,3716.63
50.85366,3738.04
50.91366,3721.92
50.97366,3715.92
51.03366,3728.09
51.09366,3720.94
51.15366,3711.9
51.21366,3685.71
51.27366,3689.46
51.33366,3704.07
51.39366,3794.79
51.45366,3976.35
51.51366,4099.55
51.57366,4039.61
51.63366,3999.83
51.69366,3820.07
51.75366,3816.32
51.81366,4246.41
51.87366,4443.01
51.93366,4192.43
51.99366,4151.91
52.05366,3792.98
52.11366,3825.31
52.17366,3697.84
52.23366,3718.53
52.29366,3826.74
52.35366,3806.46
52.41366,4034.35
52.47366,4568.97
52.53366,4731.77
52.59366,4511.05
52.65366,4139.49
52.71366,4015.22
52.77366,3706.46
52.83366,3711.46
52.89366,3705.86
52.95366,3709.86
53.01366,3708.74
53.07366,3731.6
53.13366,3720.03
53.19366,3706.53
53.25366,3685.05
53.31366,3698.55
53.37366,3719.76
53.43366,3720.87
53.49366,3722.09
53.55366,3715.81
53.61366,3707.48
53.67366,3711.76
53.73366,3723.6
53.79366,3721.73
53.85366,3653.58
53.91366,3775.01
53.97366,3725.98
54.03366,3842.58
54.09366,4023.97
54.15366,4606.33
54.21366,4357.21
54.27366,4273.18
54.33366,4040.88
54.39366,3875.05
54.45366,3740.56
54.51366,3691.15
54.57366,3702.66
54.63366,3760.63
54.69366,3768.33
54.75366,4154.39
54.81366,4332.55
54.87366,4082.72
54.93366,3941.58
54.99366,3767.87
55.05366,3783.2
55.11366,3782.35
55.17366,3815.57
55.23366,3740.13
55.29366,3735.22
55.35366,3726.89
55.41366,3716.92
55.47366,3720.35
55.53366,3728.8
55.59366,3710.71
55.65366,3714.05
55.71366,3724.35
55.77366,3726.42
55.83366,3723.33
55.89366,3713.4
55.95366,3715.68
56.01366,3719.03
56.07366,3711.29
56.13366,3712.79
56.19366,3718.57
56.25366,3717.37
56.31366,3713.83
56.37366,3716.16
56.43366,3703.28
56.49366,3713.91
56.55366,3700.36
56.61366,3711.63
56.67366,3798.079
56.73366,3711.94
56.79366,3732.28
56.85366,3782.13
56.91366,3726.84
56.97366,3740.4
57.03366,3650
57.09366,3811.15
57.15366,3756.01
57.21366,3830.2
57.27366,3877.86
57.33366,4007.25
57.39366,4131.54
57.45366,4115.21
57.51366,4059.91
57.57366,3853.11
57.63366,3863.71
57.69366,3782.89
57.75366,3860.7
57.81366,3843.78
57.87366,3883.09
57.93366,3903.44
57.99366,3942.62
58.05366,4000.7
58.11366,4104.94
58.17366,4427.45
58.23366,5269.33
58.29366,6041.05
58.35366,5686.09
58.41366,5241.19
58.47366,4707.58
58.53366,4151.21
58.59366,3977.1
58.65366,3935.7
58.71366,3907.61
58.77366,3750.15
58.83366,3756.91
58.89366,3766.41
58.95366,3731.87
59.01366,3790.6
59.07366,3685.74
59.13366,3696.21
59.19366,3702.14
59.25366,3696.86
59.31366,3701.57
59.37366,3707.71
59.43366,3711.06
59.49366,3711.7
59.55366,3700.19
59.61366,3690.99
59.67366,3872.59
59.73366,3937.78
59.79366,3889.73
59.85366,3758.94
59.91366,3829.02
59.97366,3823.31
60.03366,3780.04
60.09366,3637.76
60.15366,3701.25
60.21366,3826.55
60.27366,3772.96
60.33366,3696.11
60.39366,3643.55
60.45366,3765.43
60.51366,3707.42
60.57366,3748.73
60.63366,3708.8
60.69366,3704.26
60.75366,3713.48
60.81366,3753.56
60.87366,3829.78
60.93366,3942.22
60.99366,4567.07
61.05366,4577.26
61.11366,4316.52
61.17366,4153.79
61.23366,3882.62
61.29366,3766.66
61.35366,3726.88
61.41366,3650.72
61.47366,3827.65
61.53366,3711.71
61.59366,3678.88
61.65366,3704.56
61.71366,3710.88
61.77366,3714.8
61.83366,3721.29
61.89366,3704.96
61.95366,3698.82
62.01366,3712.27
62.07366,3718.65
62.13366,3709.1
62.19366,3700.4
62.25366,3702.64
62.31366,3709.03
62.37366,3710.36
62.43366,3720.55
62.49366,3719.38
62.55366,3704.42
62.61366,3670.68
62.67366,3750.41
62.73366,3708.03
62.79366,3701.4
62.85366,3737.87
62.91366,3693.68
62.97366,3679.84
63.03366,3701.89
63.09366,3703.73
63.15366,3703.9
63.21366,3702.83
63.27366,3709.41
63.33366,3702.41
63.39366,3749.13
63.45366,3717.25
63.51366,3698.63
63.57366,3701.68
63.63366,3709.42
63.69366,3714.66
63.75366,3764.58
63.81366,3897.66
63.87366,4391.94
63.93366,5285.56
63.99366,6677.91
64.05366,5921.5
64.11366,5463.65
64.17366,4990.26
64.23366,4201.71
64.29366,3902.82
64.35366,3715.89
64.41366,3777.03
64.47366,3698.42
64.53366,3665.33
64.59366,3626.65
64.65366,3719.27
64.71366,3704.08
64.77366,3714.37
64.83366,3722.95
64.89366,3734.23
64.95366,3719
65.01366,3717.18
65.07366,3717.96
65.13366,3713.03
65.19366,3714.32
65.25366,3707.03
65.31366,3704.99
65.37366,3703.47
65.43366,3709.16
65.49366,3706.69
65.55366,3697
65.61366,3701.84
65.67366,3713.24
65.73366,3710.22
65.79366,3713.8
65.85366,3706.51
65.91366,3705.06
65.97366,3710.11
66.03366,3717.55
66.09366,3731.45
66.15366,3871.82
66.21366,4231.48
66.27366,4563.12
66.33366,4982.57
66.39366,4908
66.45366,4683.13
66.51366,4512.85
66.57366,4151.31
66.63366,3924.2
66.69366,3823.08
66.75366,3773.38
66.81366,3741.7
66.87366,3873.29
66.93366,3669.96
66.99366,3677.02
67.05366,3739.47
67.11366,3718.27
67.17366,3722.75
67.23366,3700.81
67.29366,3700.44
67.35366,3700.98
67.41366,3717.53
67.47366,3704.38
67.53366,3708.93
67.59366,3692.01
67.65366,3700.15
67.71366,3702.88
67.77366,3704.66
67.83366,3705.18
67.89366,3722.66
67.95366,3718.02
68.01366,3707.43
68.07366,3694.74
68.13366,3691.97
68.19366,3706.63
68.25366,3733.89
68.31366,3730.96
68.37366,3722.17
68.43366,3712.07
68.49366,3711.76
68.55366,3707.22
68.61366,3707.29
68.67366,3706.66
68.73366,3708.04
68.79366,3704.81
68.85366,3712.72
68.91366,3712.05
68.97366,3721.32
69.03366,3751.13
69.09366,3712.18
69.15366,3705.97
69.21366,3695.24
69.27366,3702.45
69.33366,3705.02
69.39366,3708.94
69.45366,3695.54
69.51366,3709.75
69.57366,3772.08
69.63366,3733.03
69.69366,3766.38
69.75366,3782.03
69.81366,3860.5
69.87366,4132.91
69.93366,4703.12
69.99366,5921.11
70.05366,7053.35
70.11366,5751.88
70.17366,5649.94
70.23366,5296.78
70.29366,4499.72
70.35366,4159.37
70.41366,3973.2
70.47366,4018.39
70.53366,4393.39
70.59366,4480.26
70.65366,4278.26
70.71366,4030.79
70.77366,4248.71
70.83366,3842.9
70.89366,3885.56
70.95366,3855.31
71.01366,3722.62
71.07366,3626.59
71.13366,3718.8
71.19366,3735.5
71.25366,3743.58
71.31366,3780.9
71.37366,3785.38
71.43366,3800.06
71.49366,3858.08
71.55366,3707.86
71.61366,3690.79
71.67366,3708.43
71.73366,3694.63
71.79366,3729.01
71.85366,3704.14
71.91366,3716.79
71.97366,3703.21
72.03366,3680.16
72.09366,3761.82
72.15366,3694.65
72.21366,3774.88
72.27366,3655.26
72.33366,3676.54
72.39366,3802.41
72.45366,3615.56
72.51366,3642.97
72.57366,3605.27
72.63366,3648.63
72.69366,3726.04
72.75366,3620.63
72.81366,3664.69
72.87366,3715.82
72.93366,3696.62
72.99366,3702.59
73.05366,3703.57
73.11366,3693.61
73.17366,3708.15
73.23366,3701.67
73.29366,3719.25
73.35366,3708.45
73.41366,3697.61
73.47366,3703.61
73.53366,3737.92
73.59366,3644.86
73.65366,3682.85
73.71366,3759.35
73.77366,3715.65
73.83366,3892.13
73.89366,4062.24
73.95366,4102.01
74.01366,3892.92
74.07366,3832.5
74.13366,3825.3
74.19366,3765.24
74.25366,3642.17
74.31366,3623.87
74.37366,3666.37
74.43366,3715.71
74.49366,3700.2
74.55366,3715.85
74.61366,3751.19
74.67366,3815.17
74.73366,4556.88
74.79366,4400.55
74.85366,4100.12
74.91366,4211.24
74.97366,4032.44
75.03366,3935.3
75.09366,3795.17
75.15366,3968.06
75.21366,4023.67
75.27366,4321.45
75.33366,4036.57
75.39366,4182.38
75.45366,4326.58
75.51366,4430.98
75.57366,4644.04
75.63366,4454.35
75.69366,4374.48
75.75366,4178.61
75.81366,4009.14
75.87366,3814.96
75.93366,3748.34
75.99366,3643.51
76.05366,3671.7
76.11366,3706.56
76.17366,3710.83
76.23366,3709.1
76.29366,3715.92
76.35366,3710.49
76.41366,3703.37
76.47366,3701.8
76.53366,3815.83
76.59366,3994.81
76.65366,3974.95
76.71366,3809.59
76.77366,3755.35
76.83366,3700.94
76.89366,3730.18
76.95366,3691.71
77.01366,3668.15
77.07366,3661.37
77.13366,3714.45
77.19366,3707.56
77.25366,3696.93
77.31366,3709.68
77.37366,3707.15
77.43366,3714.71
77.49366,3722.63
77.55366,3709.51
77.61366,3709.224
77.67366,3711.27
77.73366,3703.16
77.79366,3762.52
77.85366,3767.54
77.91366,3894.57
77.97366,3959.57
78.03366,3890.37
78.09366,3862.76
78.15366,3815.1
78.21366,3888.24
78.27366,3722.88
78.33366,3790.62
78.39366,3683.24
78.45366,3742.15
78.51366,3825.46
78.57366,3686.6
78.63366,3670.06
78.69366,3710.07
78.75366,3710.44
78.81366,3702.23
78.87366,3695.8
78.93366,3688.99
78.99366,3710.98
79.05366,3701.06
79.11366,3731.37
79.17366,3714.55
79.23366,3718.38
79.29366,3701.26
79.35366,3754.58
79.41366,3695.62
79.47366,3708.91
79.53366,3712.78
79.59366,3721.31
79.65366,3707.64
79.71366,3720.56
79.77366,3709.85
79.83366,3707.9
79.89366,3715.88
79.95366,3711.74
80.01366,3708.45
80.07366,3712.21
80.13366,3725.63
80.19366,3733.14
80.25366,3704.07
80.31366,3725.38
80.37366,3726.62
80.43366,3712.98
80.49366,3710.82
80.55366,3702.29
80.61366,3708.3
80.67366,3716.81
80.73366,3705.57
80.79366,3713.49
80.85366,3689.2
80.91366,3708.71
80.97366,3706
81.03366,3705.35
81.09366,3694.6
81.15366,3700.48
81.21366,3701.7
81.27366,3703.57
81.33366,3708.43
81.39366,3705.92
81.45366,3709.59
81.51366,3725.69
81.57366,3697.29
81.63366,3709.59
81.69366,3710.01
81.75366,3733.29
81.81366,3731.33
81.87366,4026.01
81.93366,4541.38
81.99366,4667.77
82.05366,4371.6
82.11366,4219.48
82.17366,4333.2
82.23366,4199.24
82.29366,3974.49
82.35366,3772.51
82.41366,3862.81
82.47366,3722.17
82.53366,3768.67
82.59366,3738.43
82.65366,3623
82.71366,3604.3
82.77366,3699.22
82.83366,3701.77
82.89366,3699.69
82.95366,3698.3
83.01366,3709.5
83.07366,3725.19
83.13366,3698.53
83.19366,3692.97
83.25366,3702.09
83.31366,3710.4
83.37366,3705.89
83.43366,3698.83
83.49366,3711.19
83.55366,3700.24
83.61366,3699.48
83.67366,3703.71
83.73366,3710.77
83.79366,3697.59
83.85366,3713.72
83.91366,3688.74
83.97366,3706.86
84.03366,3712.62
84.09366,3710.03
84.15366,3711.15
84.21366,3707.3
84.27366,3708.57
84.33366,3703.05
84.39366,3706.11
84.45366,3693.97
84.51366,3702.89
84.57366,3697.18
84.63366,3722.42
84.69366,3704.86
84.75366,3709.494
84.81366,3715.8
84.87366,3704.17
84.93366,3703.89
84.99366,3711.86
85.05366,3697.37
85.11366,3720.28
85.17366,3712.33
85.23366,3744.66
85.29366,3864.7
85.35366,3915.8
85.41366,4175.58
85.47366,4455.72
85.53366,4258.57
85.59366,4176.4
85.65366,4266.82
85.71366,4227.4
85.77366,4142.07
85.83366,4250.72
85.89366,4501.14
85.95366,4984.82
86.01366,5035.5
86.07366,4934.76
86.13366,4725.99
86.19366,4624.15
86.25366,4564.62
86.31366,4310.27
86.37366,4053.67
86.43366,4034.86
86.49366,3886.64
86.55366,3825.78
86.61366,3844.75
86.67366,3784.38
86.73366,3775.03
86.79366,3642.62
86.85366,3702.29
86.91366,3740.22
86.97366,3750.42
87.03366,3716.04
87.09366,3713.54
87.15366,3703.36
87.21366,3729.42
87.27366,3738.88
87.33366,3737.08
87.39366,3739.27
87.45366,3718.39
87.51366,3723.26
87.57366,3706.83
87.63366,3708.49
87.69366,3711
87.75366,3712.03
87.81366,3703.35
87.87366,3693.72
87.93366,3708
87.99366,3694.98
88.05366,3707.83
88.11366,3722.09
88.17366,3712.16
88.23366,3711.64
88.29366,3703.18
88.35366,3708.16
88.41366,3746.61
88.47366,3843.99
88.53366,3987.38
88.59366,4223.02
88.65366,4065.17
88.71366,3933.68
88.77366,3932.6
88.83366,3978.04
88.89366,3842.87
88.95366,3694.31
89.01366,3659.52
89.07366,3691.94
89.13366,3688.17
89.19366,3698.47
89.25366,3710.69
89.31366,3703.38
89.37366,3708.08
89.43366,3712.91
89.49366,3699.89
89.55366,3748.49
89.61366,3705.03
89.67366,3707.05
89.73366,3707.17
89.79366,3848.83
89.85366,3949.85
89.91366,4147.29
89.97366,4143.53
90.03366,4035.82
90.09366,3959.53
90.15366,3966.25
90.21366,3985.61
90.27366,3928.73
90.33366,3797.3
90.39366,3791.84
90.45366,3801.91
90.51366,3751.23
90.57366,3698.25
90.63366,3705.7
90.69366,3723.89
90.75366,3691.64
90.81366,3737.72
90.87366,3712.59
90.93366,3719.46
90.99366,3696.85
91.05366,3700.95
91.11366,3702.44
91.17366,3714.61
91.23366,3712.65
91.29366,3712.33
91.35366,3708.53
91.41366,3702.54
91.47366,3719.92
91.53366,3730.75
91.59366,3715.2
91.65366,3709.55
91.71366,3717.66
91.77366,3711.32
91.83366,3741.58
91.89366,3702.45
91.95366,3706.45
92.01366,3729.86
92.07366,3720.87
92.13366,3718.43
92.19366,3736.84
92.25366,3716.78
92.31366,3659.82