File: data/xrd_icdd_PDF/00-059-0727 (PD3).csv
5.021,2042
5.101,2079
5.181,2061
5.261,2014
5.341,1972
5.421,1952
5.501,1911
5.581,1903
5.661,1750
5.741,1748
5.821,1840
5.901,1805
5.981,1784
6.061,1717
6.141,1630
6.221,1686
6.301,1588
6.381,1664
6.461,1633
6.541,1516
6.621,1530
6.701,1469
6.781,1526
6.861,1539
6.941,1438
7.021,1518
7.101,1449
7.181,1428
7.261,1432
7.341,1437
7.421,1390
7.501,1351
7.581,1408
7.661,1297
7.741,1412
7.821,1409
7.901,1291
7.981,1313
8.061,1305
8.141,1313
8.221,1304
8.301,1288
8.381,1296
8.461,1179
8.541,1181
8.621,1294
8.701,1188
8.781,1260
8.861,1175
8.941,1242
9.021,1198
9.101,1216
9.181,1180
9.261,1172
9.341,1167
9.421,1114
9.501,1194
9.581,1127
9.661,1113
9.741,1147
9.821,1113
9.901,1087
9.981,1145
10.061,1153
10.141,1105
10.221,1052
10.301,1061
10.381,1100
10.461,1087
10.541,1105
10.621,1067
10.701,1103
10.781,1043
10.861,1020
10.941,1034
11.021,1011
11.101,1063
11.181,1059
11.261,1033
11.341,1071
11.421,967
11.501,1004
11.581,969
11.661,984
11.741,989
11.821,992
11.901,955
11.981,939
12.061,916
12.141,1006
12.221,891
12.301,957
12.381,987
12.461,929
12.541,953
12.621,937
12.701,948
12.781,905
12.861,1004
12.941,1073
13.021,1110
13.101,1203
13.181,1296
13.261,1569
13.341,1976
13.421,2792
13.501,4192
13.581,7758
13.661,15151
13.741,4850
13.821,2162
13.901,2671
13.981,3358
14.061,5555
14.141,8544
14.221,14851
14.301,30263
14.381,49320
14.461,6238
14.541,2213
14.621,1479
14.701,1166
14.781,1021
14.861,869
14.941,879
15.021,828
15.101,776
15.181,873
15.261,798
15.341,819
15.421,791
15.501,849
15.581,862
15.661,876
15.741,872
15.821,847
15.901,877
15.981,899
16.061,848
16.141,888
16.221,974
16.301,1047
16.381,1201
16.461,1581
16.541,2067
16.621,3593
16.701,7281
16.781,11486
16.861,3130
16.941,1383
17.021,1071
17.101,889
17.181,842
17.261,829
17.341,830
17.421,863
17.501,817
17.581,826
17.661,845
17.741,836
17.821,797
17.901,704
17.981,809
18.061,743
18.141,802
18.221,734
18.301,684
18.381,777
18.461,747
18.541,735
18.621,776
18.701,719
18.781,785
18.861,726
18.941,782
19.021,719
19.101,753
19.181,718
19.261,757
19.341,753
19.421,756
19.501,755
19.581,693
19.661,742
19.741,725
19.821,733
19.901,747
19.981,694
20.061,760
20.141,715
20.221,709
20.301,684
20.381,713
20.461,657
20.541,741
20.621,686
20.701,728
20.781,735
20.861,656
20.941,641
21.021,706
21.101,707
21.181,707
21.261,692
21.341,691
21.421,711
21.501,781
21.581,1050
21.661,1072
21.741,776
21.821,701
21.901,670
21.981,697
22.061,709
22.141,671
22.221,720
22.301,644
22.381,710
22.461,687
22.541,683
22.621,796
22.701,935
22.781,1273
22.861,1522
22.941,818
23.021,748
23.101,773
23.181,866
23.261,1100
23.341,2037
23.421,2554
23.501,1845
23.581,1442
23.661,783
23.741,700
23.821,715
23.901,661
23.981,673
24.061,683
24.141,681
24.221,720
24.301,649
24.381,690
24.461,720
24.541,699
24.621,723
24.701,680
24.781,685
24.861,656
24.941,723
25.021,781
25.101,1043
25.181,1417
25.261,2858
25.341,7708
25.421,10190
25.501,3775
25.581,1106
25.661,861
25.741,751
25.821,777
25.901,729
25.981,713
26.061,745
26.141,756
26.221,733
26.301,844
26.381,1122
26.461,1645
26.541,3327
26.621,7035
26.701,8807
26.781,3368
26.861,1316
26.941,1098
27.021,1181
27.101,1666
27.181,3139
27.261,6437
27.341,16550
27.421,49589
27.501,84613
27.581,36823
27.661,10669
27.741,19571
27.821,31032
27.901,19890
27.981,5705
28.061,1745
28.141,1192
28.221,896
28.301,862
28.381,828
28.461,918
28.541,1252
28.621,2167
28.701,3879
28.781,9382
28.861,30861
28.941,68874
29.021,33279
29.101,5399
29.181,2116
29.261,1393
29.341,1030
29.421,792
29.501,801
29.581,777
29.661,703
29.741,755
29.821,748
29.901,751
29.981,734
30.061,764
30.141,773
30.221,760
30.301,765
30.381,737
30.461,819
30.541,903
30.621,1043
30.701,1622
30.781,3315
30.861,6942
30.941,18613
31.021,28881
31.101,12849
31.181,2391
31.261,1048
31.341,821
31.421,756
31.501,737
31.581,695
31.661,728
31.741,688
31.821,697
31.901,709
31.981,696
32.061,700
32.141,675
32.221,608
32.301,692
32.381,684
32.461,683
32.541,688
32.621,620
32.701,636
32.781,739
32.861,977
32.941,1521
33.021,3608
33.101,8944
33.181,6100
33.261,1910
33.341,1003
33.421,1022
33.501,1169
33.581,2091
33.661,5013
33.741,14660
33.821,19231
33.901,20451
33.981,9614
34.061,2191
34.141,1046
34.221,874
34.301,776
34.381,669
34.461,574
34.541,558
34.621,545
34.701,558
34.781,587
34.861,669
34.941,938
35.021,1984
35.101,1816
35.181,1188
35.261,755
35.341,909
35.421,1704
35.501,1226
35.581,694
35.661,621
35.741,720
35.821,1140
35.901,2727
35.981,4486
36.061,3785
36.141,1666
36.221,765
36.301,708
36.381,1040
36.461,1765
36.541,1180
36.621,610
36.701,610
36.781,681
36.861,1304
36.941,1239
37.021,852
37.101,657
37.181,818
37.261,1896
37.341,2999
37.421,1963
37.501,848
37.581,618
37.661,666
37.741,868
37.821,1755
37.901,1573
37.981,900
38.061,649
38.141,780
38.221,719
38.301,585
38.381,495
38.461,502
38.541,496
38.621,468
38.701,470
38.781,482
38.861,478
38.941,502
39.021,478
39.101,482
39.181,502
39.261,497
39.341,513
39.421,604
39.501,874
39.581,761
39.661,527
39.741,425
39.821,476
39.901,469
39.981,495
40.061,456
40.141,545
40.221,618
40.301,705
40.381,685
40.461,750
40.541,1098
40.621,795
40.701,637
40.781,517
40.861,511
40.941,509
41.021,571
41.101,537
41.181,626
41.261,702
41.341,909
41.421,1532
41.501,4037
41.581,3810
41.661,4220
41.741,4595
41.821,2980
41.901,1135
41.981,714
42.061,653
42.141,606
42.221,631
42.301,602
42.381,616
42.461,703
42.541,824
42.621,1386
42.701,3950
42.781,5368
42.861,3592
42.941,1281
43.021,782
43.101,693
43.181,584
43.261,636
43.341,558
43.421,645
43.501,643
43.581,685
43.661,726
43.741,965
43.821,1383
43.901,3278
43.981,10848
44.061,8831
44.141,5907
44.221,1954
44.301,1338
44.381,1426
44.461,1404
44.541,1151
44.621,729
44.701,648
44.781,613
44.861,581
44.941,591
45.021,575
45.101,543
45.181,585
45.261,595
45.341,590
45.421,604
45.501,634
45.581,783
45.661,1127
45.741,2515
45.821,2013
45.901,1718
45.981,845
46.061,809
46.141,869
46.221,988
46.301,1218
46.381,2014
46.461,4909
46.541,17268
46.621,11897
46.701,9222
46.781,2304
46.861,1339
46.941,1225
47.021,1296
47.101,1785
47.181,4169
47.261,8118
47.341,6907
47.421,5598
47.501,2731
47.581,1842
47.661,1405
47.741,2152
47.821,5859
47.901,5072
47.981,5075
48.061,6398
48.141,4961
48.221,4146
48.301,1832
48.381,2449
48.461,1724
48.541,1545
48.621,865
48.701,1028
48.781,1437
48.861,1099
48.941,1004
49.021,889
49.101,1132
49.181,1778
49.261,3648
49.341,2970
49.421,5503
49.501,11412
49.581,7459
49.661,5547
49.741,1751
49.821,1444
49.901,1577
49.981,1242
50.061,1085
50.141,1115
50.221,1840
50.301,2140
50.381,1653
50.461,1539
50.541,1804
50.621,3183
50.701,5850
50.781,4517
50.861,5925
50.941,10627
51.021,5508
51.101,4720
51.181,1562
51.261,1049
51.341,894
51.421,851
51.501,845
51.581,982
51.661,1320
51.741,1477
51.821,2643
51.901,3959
51.981,3206
52.061,5577
52.141,9438
52.221,6256
52.301,4135
52.381,1692
52.461,996
52.541,761
52.621,686
52.701,684
52.781,584
52.861,686
52.941,658
53.021,647
53.101,615
53.181,631
53.261,638
53.341,623
53.421,649
53.501,768
53.581,1341
53.661,1443
53.741,1189
53.821,1033
53.901,738
53.981,739
54.061,780
54.141,841
54.221,923
54.301,1413
54.381,2503
54.461,3558
54.541,3928
54.621,8913
54.701,16568
54.781,16310
54.861,10741
54.941,6358
55.021,2182
55.101,1318
55.181,1041
55.261,915
55.341,919
55.421,917
55.501,804
55.581,809
55.661,725
55.741,642
55.821,713
55.901,690
55.981,752
56.061,785
56.141,760
56.221,882
56.301,1013
56.381,1444
56.461,2396
56.541,3588
56.621,7573
56.701,10011
56.781,14170
56.861,7100
56.941,5824
57.021,1929
57.101,1247
57.181,1022
57.261,1115
57.341,1557
57.421,2168
57.501,2975
57.581,6469
57.661,3647
57.741,3741
57.821,1704
57.901,920
57.981,818
58.061,718
58.141,677
58.221,652
58.301,563
58.381,651
58.461,616
58.541,614
58.621,617
58.701,559
58.781,592
58.861,574
58.941,567
59.021,558
59.101,587
59.181,572
59.261,679
59.341,973
59.421,969
59.501,847
59.581,826
59.661,776
59.741,921
59.821,1826
59.901,4261
59.981,2370
60.061,2548
60.141,1408
60.221,992
60.301,1264
60.381,2407
60.461,4048
60.541,3071
60.621,2472
60.701,1550
60.781,853
60.861,791
60.941,856
61.021,767
61.101,729
61.181,851
61.261,1248
61.341,1818
61.421,1387
61.501,1706
61.581,2970
61.661,2890
61.741,5273
61.821,3758
61.901,2896
61.981,2239
62.061,1788
62.141,2180
62.221,5323
62.301,5428
62.381,4875
62.461,5166
62.541,2453
62.621,2367
62.701,1263
62.781,1046
62.861,908
62.941,790
63.021,765
63.101,798
63.181,1309
63.261,1261
63.341,1714
63.421,3167
63.501,2029
63.581,2770
63.661,3641
63.741,1997
63.821,1946
63.901,1337
63.981,852
64.061,743
64.141,757
64.221,742
64.301,859
64.381,1243
64.461,1609
64.541,4214
64.621,2999
64.701,2488
64.781,2001
64.861,1127
64.941,1435
65.021,1073
65.101,994
65.181,789
65.261,678
65.341,627
65.421,649
65.501,694
65.581,782
65.661,1273
65.741,1372
65.821,1727
65.901,2291
65.981,1719
66.061,1475
66.141,1139
66.221,792
66.301,730
66.381,912
66.461,1980
66.541,3590
66.621,1950
66.701,2364
66.781,1625
66.861,934
66.941,1142
67.021,1131
67.101,1216
67.181,1576
67.261,1719
67.341,2424
67.421,1596
67.501,1596
67.581,1574
67.661,1307
67.741,1440
67.821,1237
67.901,1102
67.981,980
68.061,769
68.141,734
68.221,698
68.301,944
68.381,1803
68.461,1740
68.541,1215
68.621,1305
68.701,758
68.781,654
68.861,661
68.941,848
69.021,852
69.101,672
69.181,720
69.261,622
69.341,670
69.421,833
69.501,714
69.581,644
69.661,653
69.741,658
69.821,775
69.901,618
69.981,628
70.061,553
70.141,531
70.221,507
70.301,511
70.381,530
70.461,513
70.541,533
70.621,505
70.701,516
70.781,572
70.861,542
70.941,575
71.021,667
71.101,815
71.181,1401
71.261,2075
71.341,1329
71.421,1428
71.501,1121
71.581,905
71.661,899
71.741,794
71.821,978
71.901,1215
71.981,2717
72.061,3277
72.141,1641
72.221,2287
72.301,1230
72.381,756
72.461,666
72.541,734
72.621,1091
72.701,1205
72.781,1428
72.861,1179
72.941,975
73.021,924
73.101,675
73.181,626
73.261,647
73.341,860
73.421,1197
73.501,811
73.581,930
73.661,931
73.741,914
73.821,982
73.901,1454
73.981,1438
74.061,2466
74.141,2030
74.221,1952
74.301,2160
74.381,1467
74.461,1320
74.541,1617
74.621,1037
74.701,1079
74.781,1247
74.861,2031
74.941,4174
75.021,2378
75.101,2375
75.181,3376
75.261,2958
75.341,1681
75.421,2008
75.501,1787
75.581,1174
75.661,1380
75.741,1601
75.821,1247
75.901,1555
75.981,1456
76.061,1801
76.141,4435
76.221,5728
76.301,3270
76.381,3493
76.461,2878
76.541,1366
76.621,999
76.701,904
76.781,1065
76.861,1525
76.941,3715
77.021,3623
77.101,2090
77.181,3076
77.261,2944
77.341,4616
77.421,4763
77.501,3864
77.581,4481
77.661,5187
77.741,2677
77.821,2085
77.901,2055
77.981,1148
78.061,822
78.141,734
78.221,719
78.301,687
78.381,705
78.461,997
78.541,1736
78.621,1535
78.701,1126
78.781,1411
78.861,1117
78.941,993
79.021,1501
79.101,2708
79.181,1754
79.261,2283
79.341,2385
79.421,1356
79.501,1430
79.581,1314
79.661,1704
79.741,1988
79.821,1215
79.901,1452
79.981,1417
80.061,1075
80.141,1053
80.221,994
80.301,908
80.381,849
80.461,819
80.541,869
80.621,1583
80.701,2344
80.781,1558
80.861,1808
80.941,1767
81.021,1107
81.101,1006
81.181,724
81.261,683
81.341,819
81.421,804
81.501,857
81.581,1326
81.661,1399
81.741,947
81.821,1005
81.901,961
81.981,710
82.061,678
82.141,949
82.221,1253
82.301,1077
82.381,1485
82.461,1625
82.541,1451
82.621,1928
82.701,1663
82.781,2436
82.861,3936
82.941,2656
83.021,1978
83.101,2616
83.181,2707
83.261,2087
83.341,1197
83.421,1322
83.501,1372
83.581,939
83.661,800
83.741,617
83.821,658
83.901,688
83.981,587
84.061,574
84.141,543
84.221,633
84.301,729
84.381,844
84.461,802
84.541,662
84.621,714
84.701,743
84.781,697
84.861,778
84.941,1040
85.021,1018
85.101,835
85.181,802
85.261,989
85.341,1150
85.421,849
85.501,719
85.581,851
85.661,766
85.741,773
85.821,597
85.901,558
85.981,646
86.061,661
86.141,661
86.221,582
86.301,574
86.381,650
86.461,721
86.541,785
86.621,720
86.701,873
86.781,1405
86.861,1446
86.941,954
87.021,1157
87.101,2025
87.181,2229
87.261,1675
87.341,1765
87.421,2104
87.501,2087
87.581,2617
87.661,2743
87.741,1909
87.821,2064
87.901,3215
87.981,2130
88.061,1207
88.141,1433
88.221,1465
88.301,892
88.381,700
88.461,649
88.541,660
88.621,640
88.701,683
88.781,614
88.861,586
88.941,619
89.021,565
89.101,541
89.181,515
89.261,517
89.341,554
89.421,509
89.501,533
89.581,513
89.661,567
89.741,552
89.821,644
89.901,724
89.981,893
90.061,1096
90.141,1844
90.221,3897
90.301,3047
90.381,1929
90.461,2516
90.541,2362
90.621,1532
90.701,1174
90.781,1140
90.861,1428
90.941,2377
91.021,2444
91.101,2098
91.181,2149
91.261,2060
91.341,1523
91.421,1273
91.501,932
91.581,881
91.661,944
91.741,1444
91.821,1288
91.901,1138
91.981,1368
92.061,2217
92.141,3099
92.221,1932
92.301,1198
92.381,1723
92.461,1821
92.541,1146
92.621,773
92.701,677
92.781,717
92.861,649
92.941,563
93.021,625
93.101,717
93.181,649
93.261,775
93.341,1026
93.421,1075
93.501,1178
93.581,1024
93.661,812
93.741,836
93.821,932
93.901,729
93.981,636
94.061,666
94.141,703
94.221,688
94.301,656
94.381,699
94.461,1009
94.541,1583
94.621,1328
94.701,1021
94.781,1007
94.861,1201
94.941,899
95.021,689
95.101,722
95.181,691
95.261,621
95.341,568
95.421,644
95.501,761
95.581,705
95.661,672
95.741,826
95.821,941
95.901,891
95.981,717
96.061,699
96.141,766
96.221,719
96.301,637
96.381,590
96.461,558
96.541,733
96.621,700
96.701,803
96.781,987
96.861,1138
96.941,1078
97.021,1235
97.101,1557
97.181,2405
97.261,2491
97.341,1699
97.421,1567
97.501,2527
97.581,2275
97.661,1356
97.741,1263
97.821,1434
97.901,1238
97.981,978
98.061,919
98.141,994
98.221,1150
98.301,890
98.381,681
98.461,818
98.541,816
98.621,801
98.701,742
98.781,606
98.861,606
98.941,704
99.021,724
99.101,697
99.181,636
99.261,714
99.341,854
99.421,1092
99.501,1736
99.581,2594
99.661,1846
99.741,1244
99.821,1322
99.901,1704
99.981,1387
100.061,1062
100.141,835
100.221,750
100.301,794
100.381,756
100.461,685
100.541,626
100.621,671
100.701,779
100.781,995
100.861,1618
100.941,2073
101.021,1365
101.101,1104
101.181,1456
101.261,2066
101.341,1597
101.421,1017
101.501,928
101.581,1128
101.661,1360
101.741,1279
101.821,955
101.901,868
101.981,974
102.061,957
102.141,840
102.221,763
102.301,787
102.381,822
102.461,1021
102.541,948
102.621,896
102.701,1079
102.781,1374
102.861,1305
102.941,889
103.021,867
103.101,995
103.181,1083
103.261,1071
103.341,1078
103.421,874
103.501,814
103.581,842
103.661,1019
103.741,1457
103.821,1557
103.901,1140
103.981,965
104.061,1225
104.141,1697
104.221,1915
104.301,1716
104.381,2202
104.461,2698
104.541,1904
104.621,1500
104.701,1410
104.781,1777
104.861,1554
104.941,1150
105.021,1070
105.101,1400
105.181,1986
105.261,1824
105.341,1357
105.421,1296
105.501,1340
105.581,1474
105.661,1244
105.741,1073
105.821,1050
105.901,888
105.981,825
106.061,770
106.141,821
106.221,913
106.301,920
106.381,1130
106.461,1590
106.541,1376
106.621,1048
106.701,982
106.781,1060
106.861,1233
106.941,1010
107.021,1035
107.101,907
107.181,851
107.261,831
107.341,937
107.421,987
107.501,1168
107.581,979
107.661,828
107.741,786
107.821,910
107.901,1006
107.981,952
108.061,963
108.141,938
108.221,975
108.301,1080
108.381,1058
108.461,1106
108.541,935
108.621,928
108.701,971
108.781,1104
108.861,1313
108.941,1199
109.021,995
109.101,954
109.181,1055
109.261,1001
109.341,1023
109.421,899
109.501,1101
109.581,1444
109.661,1931
109.741,1582
109.821,1306
109.901,1213
109.981,1488
110.061,2053
110.141,1963
110.221,1385
110.301,1155
110.381,1163
110.461,1302
110.541,1264
110.621,1220
110.701,1497
110.781,2129
110.861,2332
110.941,1994
111.021,1581
111.101,1322
111.181,1567
111.261,1820
111.341,1594
111.421,1166
111.501,1087
111.581,1071
111.661,1134
111.741,1265
111.821,1252
111.901,1198
111.981,1744
112.061,2118
112.141,1858
112.221,1613
112.301,1350
112.381,1501
112.461,1647
112.541,1610
112.621,1954
112.701,2187
112.781,1946
112.861,1785
112.941,1735
113.021,1566
113.101,1487
113.181,1356
113.261,1300
113.341,1300
113.421,1082
113.501,889
113.581,1033
113.661,1217
113.741,1454
113.821,1811
113.901,1861
113.981,1501
114.061,1398
114.141,1295
114.221,1514
114.301,1578
114.381,1647
114.461,2012
114.541,2216
114.621,1840
114.701,1420
114.781,1313
114.861,1489
114.941,1829
115.021,2077
115.101,2005
115.181,2087
115.261,2029
115.341,2153
115.421,1894
115.501,1586
115.581,1515
115.661,1417
115.741,1368
115.821,1368
115.901,1095
115.981,1086
116.061,1269
116.141,1289
116.221,1072
116.301,1028
116.381,976
116.461,1185
116.541,1464
116.621,1591
116.701,1372
116.781,1299
116.861,1533
116.941,1866
117.021,1880
117.101,1427
117.181,1322
117.261,1454
117.341,1818
117.421,2188
117.501,2091
117.581,1597
117.661,1379
117.741,1257
117.821,1331
117.901,1328
117.981,1367
118.061,1259
118.141,1124
118.221,994
118.301,886
118.381,891
118.461,862
118.541,968
118.621,948
118.701,891
118.781,821
118.861,937
118.941,914
119.021,992
119.101,928
119.181,842
119.261,839
119.341,876
119.421,950
119.501,880
119.581,932
119.661,1051
119.741,1173
119.821,1185
119.901,1122
119.981,1151
120.021,1262