File: data/xrd_icdd_PDF/00-063-0412 (PD3).csv
5,763
5.08,665
5.16,788
5.24,591
5.32,652
5.4,542
5.48,665
5.56,640
5.64,665
5.72,640
5.8,579
5.88,616
5.96,616
6.04,579
6.12,616
6.2,517
6.28,616
6.36,542
6.44,505
6.52,591
6.6,566
6.68,591
6.76,468
6.84,542
6.92,517
7,517
7.08,419
7.16,468
7.24,443
7.32,468
7.4,462
7.48,443
7.56,431
7.64,417
7.72,443
7.8,443
7.88,443
7.96,417
8.04,443
8.12,398
8.2,405
8.28,443
8.36,443
8.44,400
8.52,443
8.6,419
8.68,394
8.76,379
8.84,394
8.92,385
9,431
9.08,420
9.16,408
9.24,369
9.32,369
9.4,406
9.48,394
9.56,403
9.64,357
9.72,419
9.8,462
9.88,430
9.96,474
10.04,397
10.12,315
10.2,315
10.28,364
10.36,334
10.44,362
10.52,325
10.6,304
10.68,256
10.76,326
10.84,307
10.92,301
11,356
11.08,348
11.16,312
11.24,292
11.32,269
11.4,325
11.48,327
11.56,332
11.64,284
11.72,339
11.8,253
11.88,270
11.96,350
12.04,353
12.12,272
12.2,360
12.28,315
12.36,268
12.44,243
12.52,275
12.6,260
12.68,353
12.76,334
12.84,313
12.92,236
13,235
13.08,306
13.16,274
13.24,275
13.32,156
13.4,243
13.48,313
13.56,266
13.64,323
13.72,276
13.8,219
13.88,234
13.96,291
14.04,267
14.12,298
14.2,263
14.28,244
14.36,332
14.44,305
14.52,298
14.6,264
14.68,245
14.76,222
14.84,280
14.92,283
15,289
15.08,242
15.16,298
15.24,213
15.32,231
15.4,312
15.48,316
15.56,235
15.64,325
15.72,281
15.8,234
15.88,210
15.96,244
16.04,230
16.12,324
16.2,306
16.28,286
16.36,210
16.44,211
16.52,284
16.6,255
16.68,260
16.76,147
16.84,246
16.92,335
17,314
17.08,390
17.16,333
17.24,249
17.32,243
17.4,289
17.48,259
17.56,288
17.64,252
17.72,233
17.8,187
17.88,345
17.96,192
18.04,245
18.12,255
18.2,275
18.28,187
18.36,318
18.44,272
18.52,182
18.6,334
18.68,325
18.76,229
18.84,206
18.92,309
19,263
19.08,274
19.16,224
19.24,243
19.32,323
19.4,354
19.48,360
19.56,275
19.64,345
19.72,443
19.8,345
19.88,394
19.96,394
20.04,345
20.12,295
20.2,369
20.28,346
20.36,290
20.44,227
20.52,237
20.6,292
20.68,266
20.76,296
20.84,262
20.92,243
21,197
21.08,269
21.16,253
21.24,326
21.32,234
21.4,210
21.48,245
21.56,220
21.64,278
21.72,287
21.8,252
21.88,223
21.96,322
22.04,225
22.12,306
22.2,253
22.28,290
22.36,281
22.44,191
22.52,283
22.6,221
22.68,277
22.76,290
22.84,314
22.92,231
23,368
23.08,333
23.16,261
23.24,357
23.32,295
23.4,529
23.48,492
23.56,542
23.64,332
23.72,492
23.8,566
23.88,340
23.96,373
24.04,354
24.12,313
24.2,291
24.28,266
24.36,323
24.44,326
24.52,332
24.6,286
24.68,343
24.76,259
24.84,278
24.92,362
25,368
25.08,290
25.16,383
25.24,344
25.32,305
25.4,295
25.48,353
25.56,363
25.64,457
25.72,417
25.8,379
25.88,295
25.96,293
26.04,366
26.12,338
26.2,345
26.28,232
26.36,328
26.44,408
26.52,375
26.6,451
26.68,431
26.76,413
26.84,493
26.92,666
27,866
27.08,1299
27.16,1768
27.24,2014
27.32,1851
27.4,1487
27.48,1009
27.56,718
27.64,628
27.72,551
27.8,486
27.88,452
27.96,407
28.04,437
28.12,420
28.2,365
28.28,315
28.36,363
28.44,369
28.52,387
28.6,300
28.68,430
28.76,383
28.84,292
28.92,444
29,434
29.08,339
29.16,316
29.24,419
29.32,375
29.4,387
29.48,335
29.56,352
29.64,433
29.72,467
29.8,477
29.88,396
29.96,426
30.04,430
30.12,485
30.2,517
30.28,519
30.36,373
30.44,426
30.52,394
30.6,347
30.68,375
30.76,340
30.84,419
30.92,453
31,461
31.08,395
31.16,379
31.24,458
31.32,492
31.4,451
31.48,489
31.56,370
31.64,364
31.72,438
31.8,452
31.88,559
31.96,388
32.04,447
32.12,463
32.2,490
32.28,409
32.36,548
32.44,511
32.52,432
32.6,596
32.68,600
32.76,521
32.84,516
32.92,641
33,621
33.08,665
33.16,656
33.24,730
33.32,888
33.4,1032
33.48,1206
33.56,1387
33.64,1875
33.72,2842
33.8,4674
33.88,6352
33.96,6315
34.04,4727
34.12,3422
34.2,2600
34.28,2924
34.36,3572
34.44,4771
34.52,6932
34.6,10020
34.68,10890
34.76,8346
34.84,5338
34.92,3261
35,2217
35.08,1676
35.16,1319
35.24,1187
35.32,988
35.4,945
35.48,1016
35.56,1080
35.64,1184
35.72,1586
35.8,1658
35.88,1362
35.96,1009
36.04,834
36.12,712
36.2,748
36.28,696
36.36,657
36.44,571
36.52,573
36.6,664
36.68,664
36.76,665
36.84,515
36.92,570
37,623
37.08,570
37.16,629
37.24,589
37.32,546
37.4,585
37.48,687
37.56,750
37.64,956
37.72,1177
37.8,1233
37.88,1011
37.96,865
38.04,718
38.12,651
38.2,679
38.28,662
38.36,627
38.44,592
38.52,687
38.6,665
38.68,761
38.76,776
38.84,822
38.92,1025
39,1457
39.08,2156
39.16,3037
39.24,2955
39.32,2213
39.4,1450
39.48,1126
39.56,917
39.64,892
39.72,750
39.8,704
39.88,735
39.96,722
40.04,813
40.12,885
40.2,964
40.28,1120
40.36,1354
40.44,1797
40.52,3004
40.6,4358
40.68,3521
40.76,2154
40.84,1133
40.92,1009
41,874
41.08,948
41.16,1391
41.24,1740
41.32,2228
41.4,2560
41.48,2290
41.56,2388
41.64,1767
41.72,1325
41.8,1075
41.88,933
41.96,783
42.04,718
42.12,769
42.2,779
42.28,715
42.36,733
42.44,603
42.52,590
42.6,663
42.68,682
42.76,698
42.84,675
42.92,813
43,912
43.08,969
43.16,1196
43.24,1484
43.32,1777
43.4,2007
43.48,2091
43.56,2107
43.64,2057
43.72,1717
43.8,1320
43.88,1062
43.96,811
44.04,744
44.12,702
44.2,726
44.28,699
44.36,652
44.44,624
44.52,596
44.6,653
44.68,660
44.76,672
44.84,640
44.92,722
45,684
45.08,771
45.16,964
45.24,1159
45.32,1255
45.4,1260
45.48,1095
45.56,904
45.64,725
45.72,649
45.8,694
45.88,707
45.96,652
46.04,678
46.12,550
46.2,537
46.28,604
46.36,612
46.44,611
46.52,560
46.6,651
46.68,670
46.76,603
46.84,630
46.92,584
47,589
47.08,617
47.16,601
47.24,604
47.32,608
47.4,596
47.48,587
47.56,643
47.64,571
47.72,608
47.8,642
47.88,746
47.96,813
48.04,800
48.12,747
48.2,673
48.28,698
48.36,696
48.44,702
48.52,644
48.6,684
48.68,586
48.76,561
48.84,636
48.92,668
49,676
49.08,613
49.16,600
49.24,679
49.32,716
49.4,681
49.48,734
49.56,652
49.64,719
49.72,868
49.8,862
49.88,805
49.96,686
50.04,736
50.12,735
50.2,660
50.28,681
50.36,635
50.44,641
50.52,672
50.6,665
50.68,686
50.76,722
50.84,736
50.92,731
51,788
51.08,730
51.16,824
51.24,990
51.32,1253
51.4,1255
51.48,1112
51.56,930
51.64,784
51.72,777
51.8,750
51.88,743
51.96,697
52.04,766
52.12,736
52.2,878
52.28,946
52.36,935
52.44,1030
52.52,1280
52.6,1355
52.68,1208
52.76,1066
52.84,958
52.92,839
53,837
53.08,780
53.16,739
53.24,679
53.32,754
53.4,765
53.48,844
53.56,731
53.64,679
53.72,688
53.8,650
53.88,705
53.96,852
54.04,640
54.12,704
54.2,732
54.28,785
54.36,759
54.44,1014
54.52,1184
54.6,1228
54.68,1302
54.76,1165
54.84,906
54.92,780
55,828
55.08,752
55.16,747
55.24,691
55.32,710
55.4,805
55.48,869
55.56,928
55.64,872
55.72,897
55.8,897
55.88,999
55.96,1225
56.04,1575
56.12,1622
56.2,1592
56.28,1444
56.36,1271
56.44,1215
56.52,1154
56.6,1301
56.68,1557
56.76,1882
56.84,1948
56.92,1854
57,1705
57.08,1576
57.16,1544
57.24,1723
57.32,1522
57.4,1341
57.48,1199
57.56,1036
57.64,1054
57.72,818
57.8,824
57.88,776
57.96,803
58.04,781
58.12,743
58.2,733
58.28,734
58.36,840
58.44,922
58.52,956
58.6,871
58.68,878
58.76,734
58.84,714
58.92,778
59,775
59.08,694
59.16,789
59.24,758
59.32,737
59.4,762
59.48,890
59.56,992
59.64,1095
59.72,1035
59.8,961
59.88,845
59.96,870
60.04,1022
60.12,1040
60.2,1068
60.28,1030
60.36,1241
60.44,1311
60.52,1162
60.6,1106
60.68,931
60.76,803
60.84,799
60.92,885
61,942
61.08,1069
61.16,1024
61.24,971
61.32,887
61.4,935
61.48,902
61.56,909
61.64,1014
61.72,1025
61.8,935
61.88,860
61.96,766
62.04,768
62.12,741
62.2,729
62.28,673
62.36,723
62.44,635
62.52,653
62.6,738
62.68,747
62.76,675
62.84,769
62.92,727
63,690
63.08,686
63.16,738
63.24,717
63.32,799
63.4,767
63.48,736
63.56,665
63.64,683
63.72,769
63.8,735
63.88,736
63.96,618
64.04,700
64.12,759
64.2,710
64.28,764
64.36,712
64.44,654
64.52,675
64.6,746
64.68,747
64.76,792
64.84,746
64.92,714
65,789
65.08,748
65.16,745
65.24,732
65.32,753
65.4,759
65.48,802
65.56,787
65.64,766
65.72,694
65.8,737
65.88,649
65.96,671
66.04,765
66.12,793
66.2,753
66.28,872
66.36,832
66.44,886
66.52,911
66.6,849
66.68,665
66.76,800
66.84,948
66.92,1022
67,1450
67.08,1537
67.16,1521
67.24,1418
67.32,1280
67.4,1236
67.48,1122
67.56,1065
67.64,979
67.72,1009
67.8,894
67.88,948
67.96,932
68.04,799
68.12,720
68.2,761
68.28,704
68.36,638
68.44,647
68.52,700
68.6,674
68.68,704
68.76,666
68.84,644
68.92,595
69,664
69.08,648
69.16,722
69.24,636
69.32,732
69.4,683
69.48,686
69.56,788
69.64,832
69.72,772
69.8,789
69.88,646
69.96,616
70.04,716
70.12,745
70.2,706
70.28,749
70.36,640
70.44,640
70.52,721
70.6,752
70.68,765
70.76,705
70.84,786
70.92,797
71,725
71.08,751
71.16,704
71.24,713
71.32,751
71.4,736
71.48,730
71.56,728
71.64,757
71.72,736
71.8,690
71.88,663
71.96,635
72.04,692
72.12,698
72.2,711
72.28,676
72.36,751
72.44,698
72.52,768
72.6,945
72.68,1112
72.76,1248
72.84,1446
72.92,1339
73,1223
73.08,1093
73.16,991
73.24,881
73.32,917
73.4,871
73.48,855
73.56,814
73.64,861
73.72,954
73.8,946
73.88,991
73.96,897
74.04,984
74.12,1048
74.2,996
74.28,1028
74.36,952
74.44,857
74.52,835
74.6,874
74.68,836
74.76,848
74.84,803
74.92,797
75,792
75.08,943
75.16,1009
75.24,1003
75.32,1010
75.4,958
75.48,862
75.56,792
75.64,754
75.72,827
75.8,862
75.88,915
75.96,926
76.04,994
76.12,870
76.2,847
76.28,879
76.36,823
76.44,699
76.52,760
76.6,699
76.68,646
76.76,622
76.84,660
76.92,648
77,740
77.08,724
77.16,711
77.24,650
77.32,678
77.4,783
77.48,763
77.56,837
77.64,837
77.72,837
77.8,797
77.88,829
77.96,874
78.04,959
78.12,991
78.2,1024
78.28,997
78.36,971
78.44,881
78.52,912
78.6,809
78.68,798
78.76,850
78.84,824
78.92,709
79,767
79.08,700
79.16,638
79.24,605
79.32,635
79.4,623
79.48,726
79.56,723
79.64,719
79.72,650
79.8,653
79.88,733
79.96,716
80.04,739
80.12,660
80.2,822
80.28,1013
80.36,1206
80.44,1526
80.52,1551
80.6,1083
80.68,1108
80.76,960
80.84,848
80.92,742
81,613
81.08,741
81.16,715
81.24,609
81.32,579
81.4,676
81.48,627
81.56,635
81.64,584
81.72,606
81.8,696
81.88,743
81.96,766
82.04,694
82.12,739
82.2,768
82.28,880
82.36,1005
82.44,1076
82.52,946
82.6,971
82.68,880
82.76,768
82.84,734
82.92,651
83,699
83.08,714
83.16,709
83.24,633
83.32,606
83.4,672
83.48,694
83.56,641
83.64,667
83.72,539
83.8,524
83.88,591
83.96,598
84.04,699
84.12,522
84.2,575
84.28,585
84.36,605
84.44,518
84.52,650
84.6,605
84.68,515
84.76,667
84.84,656
84.92,560
85,536
85.08,637
85.16,589
85.24,597
85.32,544
85.4,560
85.48,641
85.56,676
85.64,688
85.72,610
85.8,643
85.88,644
85.96,837
86.04,1182
86.12,1059
86.2,726
86.28,730
86.36,707
86.44,652
86.52,616
86.6,582
86.68,632
86.76,630
86.84,631
86.92,581
87,636
87.08,553
87.16,574
87.24,662
87.32,673
87.4,602
87.48,704
87.56,675
87.64,648
87.72,656
87.8,738
87.88,782
87.96,921
88.04,906
88.12,859
88.2,756
88.28,727
88.36,765
88.44,706
88.52,690
88.6,563
88.68,646
88.76,707
88.84,650
88.92,698
89,644
89.08,581
89.16,591
89.24,643
89.32,615
89.4,648
89.48,618
89.56,610
89.64,577
89.72,662
89.8,654
89.88,656
89.96,718
90.04,717
90.12,692
90.2,686
90.28,673
90.36,733
90.44,735
90.52,741
90.6,698
90.68,755
90.76,666
90.84,680
90.92,769
91,793
91.08,742
91.16,857
91.24,820
91.32,766
91.4,735
91.48,762
91.56,736
91.64,821
91.72,800
91.8,776
91.88,691
91.96,681
92.04,740
92.12,688
92.2,667
92.28,530
92.36,601
92.44,657
92.52,601
92.6,654
92.68,604
92.76,545
92.84,557
92.92,612
93,585
93.08,615
93.16,579
93.24,560
93.32,653
93.4,625
93.48,624
93.56,599
93.64,595
93.72,595
93.8,686
93.88,731
93.96,778
94.04,753
94.12,776
94.2,1009
94.28,788
94.36,788
94.44,716
94.52,676
94.6,632
94.68,672
94.76,663
94.84,658
94.92,601
95,650
95.08,562
95.16,580
95.24,665
95.32,677
95.4,607
95.48,706
95.56,667
95.64,623
95.72,603
95.8,644
95.88,639
95.96,745
96.04,740
96.12,729
96.2,651
96.28,640
96.36,698
96.44,654
96.52,639
96.6,505
96.68,578
96.76,636
96.84,583
96.92,636
97,588
97.08,532
97.16,549
97.24,608
97.32,586
97.4,621
97.48,592
97.56,578
97.64,628
97.72,652
97.8,726
97.88,609
97.96,631
98.04,548
98.12,685
98.2,650
98.28,575
98.36,741
98.44,740
98.52,645
98.6,621
98.68,721
98.76,669
98.84,669
98.92,607
99,616
99.08,693
99.16,725
99.24,733
99.32,645
99.4,658
99.48,627
99.56,665
99.64,739
99.72,677
99.8,608
99.88,561
99.96,635
100.04,564
100.12,638
100.2,664
100.28,666
100.36,594
100.44,572
100.52,645
100.6,675
100.68,630
100.76,664
100.84,543
100.92,537
101,613
101.08,632
101.16,645
101.24,610
101.32,720
101.4,755
101.48,701
101.56,734
101.64,694
101.72,705
101.8,742
101.88,735
101.96,745
102.04,749
102.12,730
102.2,715
102.28,768
102.36,691
102.44,715
102.52,717
102.6,759
102.68,736
102.76,687
102.84,656
102.92,620
103,665
103.08,659
103.16,657
103.24,607
103.32,662
103.4,578
103.48,597
103.56,678
103.64,661
103.72,558
103.8,635
103.88,666
103.96,670
104.04,601
104.12,583
104.2,628
104.28,665
104.36,726
104.44,668
104.52,666
104.6,637
104.68,626
104.76,613
104.84,678
104.92,686
105,692
105.08,643
105.16,696
105.24,609
105.32,624
105.4,705
105.48,709
105.56,631
105.64,727
105.72,690
105.8,651
105.88,633
105.96,672
106.04,662
106.12,758
106.2,740
106.28,721
106.36,645
106.44,643
106.52,711
106.6,676
106.68,751
106.76,608
106.84,683
106.92,712
107,715
107.08,644
107.16,622
107.24,694
107.32,723
107.4,677
107.48,709
107.56,586
107.64,576
107.72,647
107.8,659
107.88,662
107.96,616
108.04,714
108.12,741
108.2,683
108.28,718
108.36,681
108.44,693
108.52,723
108.6,706
108.68,708
108.76,710
108.84,696
108.92,684
109,735
109.08,654
109.16,679
109.24,692
109.32,752
109.4,748
109.48,715
109.56,697
109.64,674
109.72,731
109.8,735
109.88,743
109.96,699
110.04,758
110.12,678
110.2,699
110.28,782
110.36,764
110.44,661
110.52,740
110.6,775
110.68,785
110.76,723
110.84,712
110.92,795
111,833
111.08,793
111.16,831
111.24,713
111.32,707
111.4,778
111.48,786
111.56,780
111.64,723
111.72,810
111.8,827
111.88,760
111.96,786
112.04,740
112.12,744
112.2,772
112.28,757
112.36,766
112.44,776
112.52,771
112.6,765
112.68,818
112.76,735
112.84,753
112.92,755
113,803
113.08,790
113.16,749
113.24,727
113.32,703
113.4,763
113.48,775
113.56,795
113.64,766
113.72,843
113.8,779
113.88,776
113.96,860
114.04,891
114.12,891
114.2,815
114.28,788
114.36,855
114.44,877
114.52,823
114.6,849
114.68,721
114.76,706
114.84,771
114.92,776
115,770
115.08,714
115.16,800
115.24,814
115.32,743
115.4,763
115.48,713
115.56,713
115.64,736
115.72,716
115.8,717
115.88,719
115.96,707
116.04,699
116.12,757
116.2,686
116.28,722
116.36,747
116.44,821
116.52,835
116.6,821
116.68,820
116.76,809
116.84,871
116.92,874
117,877
117.08,827
117.16,880
117.24,816
117.32,918
117.4,945
117.48,856
117.56,803
117.64,855
117.72,806
117.8,749
117.88,767
117.96,829
118.04,810
118.12,850
118.2,826
118.28,821
118.36,789
118.44,876
118.52,875
118.6,959
118.68,875
118.76,853
118.84,883
118.92,849
119,898
119.08,1033
119.16,815
119.24,906
119.32,680
119.4,750
119.48,518
119.56,659
119.64,865
119.72,844
119.8,801
119.88,775
119.96,746
120.04,798