File: data/xrd_icdd_PDF/00-056-1203 (PD3).csv
4.77366,4824.49
4.83366,4764.3
4.89366,4743.3
4.95366,4752
5.01366,4694.83
5.07366,4711.12
5.13366,4677.17
5.19366,4682.51
5.25366,4666.65
5.31366,4686.33
5.37366,4694.76
5.43366,4659.04
5.49366,4645.82
5.55366,4635.26
5.61366,4557.37
5.67366,4604.38
5.73366,4609.776
5.79366,4618.35
5.85366,4529.73
5.91366,4571.92
5.97366,4676.38
6.03366,4636.69
6.09366,4594.08
6.15366,4607.39
6.21366,4497.32
6.27366,4534.37
6.33366,4564.46
6.39366,4620.85
6.45366,4479.17
6.51366,4575.65
6.57366,4593.46
6.63366,4524.49
6.69366,4530.82
6.75366,4599.99
6.81366,4507.53
6.87366,4546.42
6.93366,4493.44
6.99366,4522.63
7.05366,4516.53
7.11366,4507.2
7.17366,4498.71
7.23366,4621.38
7.29366,4422.39
7.35366,4553.34
7.41366,4496.9
7.47366,4480.43
7.53366,4546.16
7.59366,4517.065
7.65366,4484.39
7.71366,4530.65
7.77366,4447.59
7.83366,4420.06
7.89366,4474.93
7.95366,4338.6
8.01366,4515.52
8.07366,4444.64
8.13366,4475.07
8.19366,4509.1
8.25366,4422.03
8.31366,4388.47
8.37366,4450.56
8.43366,4462.23
8.49366,4470.86
8.55366,4381.48
8.61366,4478.89
8.67366,4448.57
8.73366,4434.39
8.79366,4306.7
8.85366,4419.63
8.91366,4524.86
8.97366,4443.24
9.03366,4401.13
9.09366,4372.07
9.15366,4444.03
9.21366,4379.32
9.27366,4427.26
9.33366,4482.5
9.39366,4320.14
9.45366,4431.85
9.51366,4399.61
9.57366,4468.35
9.63366,4359.7
9.69366,4410.66
9.75366,4437.15
9.81366,4500.14
9.87366,4433.77
9.93366,4503.52
9.99366,4301.26
10.05366,4352.04
10.11366,4494.48
10.17366,4362.18
10.23366,4428.21
10.29366,4394.62
10.35366,4516.4
10.41366,4415.32
10.47366,4415.61
10.53366,4306.07
10.59366,4378.34
10.65366,4404.49
10.71366,4347.25
10.77366,4431.46
10.83366,4405.195
10.89366,4433.39
10.95366,4401.89
11.01366,4342.12
11.07366,4375.95
11.13366,4473.75
11.19366,4407.25
11.25366,4251.02
11.31366,4416.65
11.37366,4414.47
11.43366,4316.05
11.49366,4419.92
11.55366,4408.88
11.61366,4401.74
11.67366,4428.36
11.73366,4470.04
11.79366,4386.96
11.85366,4394.31
11.91366,4406.25
11.97366,4389.09
12.03366,4367.75
12.09366,4398.72
12.15366,4333.36
12.21366,4430.52
12.27366,4361.86
12.33366,4327.19
12.39366,4433.98
12.45366,4325.92
12.51366,4335.03
12.57366,4210.74
12.63366,4308.79
12.69366,4315.87
12.75366,4445.73
12.81366,4362.54
12.87366,4402.68
12.93366,4247.42
12.99366,4416.62
13.05366,4339.64
13.11366,4341.75
13.17366,4420.25
13.23366,4393.19
13.29366,4379.78
13.35366,4361.67
13.41366,4430.28
13.47366,4316.21
13.53366,4351.21
13.59366,4413.78
13.65366,4415.32
13.71366,4442.74
13.77366,4257.79
13.83366,4280.15
13.89366,4388.08
13.95366,4438.72
14.01366,4409.73
14.07366,4366.73
14.13366,4371.99
14.19366,4220.12
14.25366,4397.2
14.31366,4393.64
14.37366,4322.45
14.43366,4386.21
14.49366,4311.97
14.55366,4350.61
14.61366,4222.99
14.67366,4383.74
14.73366,4412.35
14.79366,4391.69
14.85366,4368.96
14.91366,4317.83
14.97366,4404.72
15.03366,4313.43
15.09366,4457.98
15.15366,4418.48
15.21366,4367.34
15.27366,4380.99
15.33366,4345.01
15.39366,4360.41
15.45366,4317.04
15.51366,4324.63
15.57366,4408.98
15.63366,4410.82
15.69366,4321.34
15.75366,4415.49
15.81366,4312.99
15.87366,4394.29
15.93366,4318.47
15.99366,4412.42
16.05366,4487.18
16.11366,4244.17
16.17366,4420.88
16.23366,4389.69
16.29366,4343.75
16.35366,4439.76
16.41366,4355.4
16.47366,4289.58
16.53366,4227.71
16.59366,4377.39
16.65366,4478.49
16.71366,4225.81
16.77366,4443.95
16.83366,4325.81
16.89366,4284.11
16.95366,4373.73
17.01366,4287.1
17.07366,4394.38
17.13366,4212.04
17.19366,4226.38
17.25366,4323.14
17.31366,4443.77
17.37366,4289.75
17.43366,4358.68
17.49366,4380.99
17.55366,4410.37
17.61366,4369.29
17.67366,4286.75
17.73366,4343.03
17.79366,4340.39
17.85366,4307.42
17.91366,4264.59
17.97366,4302.15
18.03366,4488.89
18.09366,4897.168
18.15366,5792.74
18.21366,5186.52
18.27366,4432.07
18.33366,4333.23
18.39366,4309.21
18.45366,4290.76
18.51366,4296.6
18.57366,4271.93
18.63366,4265.77
18.69366,4290.62
18.75366,4383.69
18.81366,4622.71
18.87366,5367.74
18.93366,7055.97
18.99366,5862.05
19.05366,4589.57
19.11366,4409.26
19.17366,4378.37
19.23366,4344.46
19.29366,4336.59
19.35366,4243.02
19.41366,4324.28
19.47366,4251.36
19.53366,4269.28
19.59366,4202.62
19.65366,4205.2
19.71366,4383.84
19.77366,4392.83
19.83366,4373.04
19.89366,4358.45
19.95366,4394.94
20.01366,4295.48
20.07366,4320.84
20.13366,4409.76
20.19366,4292.16
20.25366,4354.77
20.31366,4330.89
20.37366,4324.95
20.43366,4378.55
20.49366,4399.26
20.55366,4334.36
20.61366,4360.91
20.67366,4298.15
20.73366,4319.77
20.79366,4366.41
20.85366,4383.78
20.91366,4343.95
20.97366,4386.28
21.03366,4306.59
21.09366,4400.34
21.15366,4455.73
21.21366,4273.43
21.27366,4363.15
21.33366,4377.29
21.39366,4381.23
21.45366,4238.64
21.51366,4214.36
21.57366,4401.61
21.63366,4377.69
21.69366,4293.82
21.75366,4260.9
21.81366,4320.06
21.87366,4400.95
21.93366,4335.16
21.99366,4418.89
22.05366,4317.76
22.11366,4372.53
22.17366,4324.56
22.23366,4406.43
22.29366,4251.4
22.35366,4375.06
22.41366,4394.13
22.47366,4319.93
22.53366,4339.13
22.59366,4428.55
22.65366,4433.77
22.71366,4306.33
22.77366,4248.73
22.83366,4484.31
22.89366,4382.56
22.95366,4302.58
23.01366,4344.08
23.07366,4400.2
23.13366,4349.29
23.19366,4305.65
23.25366,4361.64
23.31366,4246.95
23.37366,4302.61
23.43366,4368.89
23.49366,4366.12
23.55366,4384.42
23.61366,4341.39
23.67366,4350.1
23.73366,4401.79
23.79366,4365.93
23.85366,4479.87
23.91366,4835.27
23.97366,6152.09
24.03366,7475.17
24.09366,5779.91
24.15366,4729.41
24.21366,4535.83
24.27366,4346.25
24.33366,4404.65
24.39366,4349.75
24.45366,4332.52
24.51366,4365.01
24.57366,4440.47
24.63366,4369.92
24.69366,4404.27
24.75366,4539.72
24.81366,5241.2
24.87366,8015.74
24.93366,10549.8
24.99366,7016.49
25.05366,4910.03
25.11366,4533.37
25.17366,4349.71
25.23366,4391.06
25.29366,4317.59
25.35366,4320.36
25.41366,4343.84
25.47366,4259.88
25.53366,4292.96
25.59366,4196.24
25.65366,4307.45
25.71366,4430.89
25.77366,4348.65
25.83366,4401.73
25.89366,4230.86
25.95366,4341.32
26.01366,4293.55
26.07366,4439.6
26.13366,4313.4
26.19366,4327.26
26.25366,4339.98
26.31366,4383.05
26.37366,4290.58
26.43366,4371.64
26.49366,4407.89
26.55366,4308.42
26.61366,4289.62
26.67366,4333.98
26.73366,4375.96
26.79366,4569.59
26.85366,5431.75
26.91366,6402.22
26.97366,5388.88
27.03366,4564.78
27.09366,4348.17
27.15366,4324.11
27.21366,4290.12
27.27366,4350.51
27.33366,4310.94
27.39366,4358.67
27.45366,4303.78
27.51366,4357.57
27.57366,4356.42
27.63366,4346.29
27.69366,4341.98
27.75366,4356.07
27.81366,4250.96
27.87366,4395.3
27.93366,4396.37
27.99366,4385.16
28.05366,4248.36
28.11366,4425.41
28.17366,4256.43
28.23366,4403.95
28.29366,4294.38
28.35366,4307.22
28.41366,4285.81
28.47366,4445.3
28.53366,4421.26
28.59366,4357.33
28.65366,4299.06
28.71366,4242.7
28.77366,4416.45
28.83366,4291.13
28.89366,4344.57
28.95366,4316.14
29.01366,4369.37
29.07366,4294.26
29.13366,4341.56
29.19366,4345.8
29.25366,4352.13
29.31366,4344.54
29.37366,4322.19
29.43366,4404.17
29.49366,4305.55
29.55366,4347.49
29.61366,4287.82
29.67366,4367.63
29.73366,4404.58
29.79366,4336.24
29.85366,4286.3
29.91366,4352.78
29.97366,4304.29
30.03366,4334.68
30.09366,4324.11
30.15366,4385.05
30.21366,4396.96
30.27366,4645.1
30.33366,4446
30.39366,4341.21
30.45366,4374.86
30.51366,4441.26
30.57366,4376.94
30.63366,4598.76
30.69366,5328.64
30.75366,6818.26
30.81366,6364.16
30.87366,5137.32
30.93366,4682.1
30.99366,4642.16
31.05366,4656.42
31.11366,4595.92
31.17366,4588.91
31.23366,4863.33
31.29366,5363.46
31.35366,6566.4
31.41366,12443.6
31.47366,25533.7
31.53366,20453.1
31.59366,10407.7
31.65366,6227.64
31.71366,5315.82
31.77366,4902.51
31.83366,4680.79
31.89366,4581.19
31.95366,4556.8
32.01366,4503.99
32.07366,4579.85
32.13366,4466.32
32.19366,4514.82
32.25366,4790.9
32.31366,5323.66
32.37366,8014.93
32.43366,9758.31
32.49366,7852.24
32.55366,5527.46
32.61366,4677.34
32.67366,4561.76
32.73366,4413.88
32.79366,4432.7
32.85366,4421.86
32.91366,4439.32
32.97366,4356.17
33.03366,4260.23
33.09366,4285.53
33.15366,4381.53
33.21366,4365.3
33.27366,4447.19
33.33366,4284.18
33.39366,4300.32
33.45366,4308.61
33.51366,4395.98
33.57366,4281.26
33.63366,4344.07
33.69366,4345.9
33.75366,4378.293
33.81366,4401.75
33.87366,4435.79
33.93366,4545.22
33.99366,4623.61
34.05366,4365.38
34.11366,4883.7
34.17366,5408.2
34.23366,5847.65
34.29366,5295.57
34.35366,4786.56
34.41366,4525.68
34.47366,4596.31
34.53366,4754.03
34.59366,5306.38
34.65366,6059.26
34.71366,5775.31
34.77366,5392.55
34.83366,6262.36
34.89366,7198.16
34.95366,6198.07
35.01366,5153.91
35.07366,4961.82
35.13366,5084.72
35.19366,5787.46
35.25366,10403.1
35.31366,15037.6
35.37366,11840.2
35.43366,7222.52
35.49366,5377.35
35.55366,4730.58
35.61366,4604.2
35.67366,4596.12
35.73366,4487.12
35.79366,4411.74
35.85366,4342.91
35.91366,4331.81
35.97366,4374.23
36.03366,4271.76
36.09366,4291.41
36.15366,4427.91
36.21366,4306.99
36.27366,4285.52
36.33366,4363.07
36.39366,4269.67
36.45366,4269.93
36.51366,4299.9
36.57366,4233.48
36.63366,4285.75
36.69366,4521.33
36.75366,5543.95
36.81366,5713.08
36.87366,4982.96
36.93366,4484.85
36.99366,4391.61
37.05366,4241.22
37.11366,4221.4
37.17366,4138.78
37.23366,4225.36
37.29366,4227.52
37.35366,4301.36
37.41366,4375.54
37.47366,4382.26
37.53366,4444.19
37.59366,4599.6
37.65366,4805.76
37.71366,5812.59
37.77366,9087.06
37.83366,10134.5
37.89366,8151.37
37.95366,5644.89
38.01366,4751.31
38.07366,4462.86
38.13366,4478.77
38.19366,4550.53
38.25366,4680.57
38.31366,5489.44
38.37366,8224.89
38.43366,9375.94
38.49366,7647.09
38.55366,5458.88
38.61366,4729.02
38.67366,4603.44
38.73366,4559.9
38.79366,4754.51
38.85366,5223.58
38.91366,6906.39
38.97366,13425
39.03366,14756.7
39.09366,11022.5
39.15366,6629.49
39.21366,4950.75
39.27366,4551.89
39.33366,4491.93
39.39366,4440.52
39.45366,4363.53
39.51366,4357.42
39.57366,4340.4
39.63366,4372.78
39.69366,4229.88
39.75366,4371.58
39.81366,4380.83
39.87366,4333.76
39.93366,4287.09
39.99366,4295.1
40.05366,4314.13
40.11366,4327.22
40.17366,4509.55
40.23366,4402.24
40.29366,4469.12
40.35366,4487.53
40.41366,4559.51
40.47366,4584.84
40.53366,4815.49
40.59366,5370.81
40.65366,7422.01
40.71366,13943.1
40.77366,15525.7
40.83366,11957.8
40.89366,7283.48
40.95366,5352.06
41.01366,4811.18
41.07366,4469.89
41.13366,4432.68
41.19366,4298.37
41.25366,4327.32
41.31366,4356.81
41.37366,4371.73
41.43366,4352.57
41.49366,4342.47
41.55366,4346.18
41.61366,4382.02
41.67366,4399.02
41.73366,4641.48
41.79366,5092.85
41.85366,6575.47
41.91366,6299.57
41.97366,5576.17
42.03366,4683.32
42.09366,4379.05
42.15366,4285.06
42.21366,4387.31
42.27366,4302.79
42.33366,4278.2
42.39366,4366.31
42.45366,4370.32
42.51366,4515.01
42.57366,5001.64
42.63366,5340.5
42.69366,4938.48
42.75366,4587.8
42.81366,4443.33
42.87366,4340.39
42.93366,4393.44
42.99366,4368.46
43.05366,4650.16
43.11366,5532.75
43.17366,6070.87
43.23366,5458.49
43.29366,4799.77
43.35366,4397.97
43.41366,4333.77
43.47366,4186.59
43.53366,4305.66
43.59366,4285.05
43.65366,4288.12
43.71366,4274.08
43.77366,4164.15
43.83366,4330.02
43.89366,4304.73
43.95366,4346.42
44.01366,4482.74
44.07366,4594.66
44.13366,4555.58
44.19366,4420.7
44.25366,4368.47
44.31366,4277.77
44.37366,4300.53
44.43366,4262.19
44.49366,4287.79
44.55366,4391.75
44.61366,4454.45
44.67366,4288.94
44.73366,4332.6
44.79366,4450.44
44.85366,4329.23
44.91366,4283.58
44.97366,4371.71
45.03366,4485.56
45.09366,4372.73
45.15366,4716.51
45.21366,5316.16
45.27366,6528.67
45.33366,6222.56
45.39366,5651.89
45.45366,4841.86
45.51366,4550.86
45.57366,4448.55
45.63366,4310.81
45.69366,4385.39
45.75366,4299.07
45.81366,4366.74
45.87366,4441.32
45.93366,4317.24
45.99366,4341.37
46.05366,4222.02
46.11366,4396.02
46.17366,4441
46.23366,4532.85
46.29366,4818.17
46.35366,4999.45
46.41366,4755.85
46.47366,4532.56
46.53366,4493.95
46.59366,4857.08
46.65366,5665.07
46.71366,5361.72
46.77366,5070.09
46.83366,4662.83
46.89366,4378.92
46.95366,4280.46
47.01366,4299.52
47.07366,4387.38
47.13366,4575.82
47.19366,4545.53
47.25366,4502.48
47.31366,4365.97
47.37366,4308.6
47.43366,4233.34
47.49366,4375.5
47.55366,4309.99
47.61366,4309.25
47.67366,4360.41
47.73366,4272.44
47.79366,4278.4
47.85366,4350.98
47.91366,4371.36
47.97366,4401.92
48.03366,4301.34
48.09366,4337.69
48.15366,4304.32
48.21366,4289.33
48.27366,4378.74
48.33366,4334.75
48.39366,4377.36
48.45366,4326.55
48.51366,4336.9
48.57366,4512.21
48.63366,4978.94
48.69366,5297.21
48.75366,5033.673
48.81366,4921.92
48.87366,4447.85
48.93366,4356.14
48.99366,4399.48
49.05366,4458.47
49.11366,4639.53
49.17366,4886.2
49.23366,4716.99
49.29366,4670.19
49.35366,4649
49.41366,5141.2
49.47366,6185.2
49.53366,6491.67
49.59366,6922.1
49.65366,7753.72
49.71366,6992.1
49.77366,6291.25
49.83366,5232.37
49.89366,4681.32
49.95366,4492.08
50.01366,4418.47
50.07366,4431.17
50.13366,4407.26
50.19366,4478.86
50.25366,4524.31
50.31366,4554.51
50.37366,4552.15
50.43366,4423.88
50.49366,4342.49
50.55366,4327.5
50.61366,4403.28
50.67366,4421.69
50.73366,4704.61
50.79366,4941.99
50.85366,4826.12
50.91366,4706.84
50.97366,4535.42
51.03366,4497.07
51.09366,4579.39
51.15366,4568.31
51.21366,4454.22
51.27366,4403.63
51.33366,4414.53
51.39366,4265.33
51.45366,4384.52
51.51366,4420.25
51.57366,4449.3
51.63366,4349.98
51.69366,4385.98
51.75366,4349.2
51.81366,4345.1
51.87366,4292.06
51.93366,4301.9
51.99366,4309.88
52.05366,4307.13
52.11366,4357.38
52.17366,4372.08
52.23366,4280.53
52.29366,4346.54
52.35366,4391.07
52.41366,4462.84
52.47366,4483.45
52.53366,4500.12
52.59366,4466.06
52.65366,4405.78
52.71366,4309.92
52.77366,4357.81
52.83366,4303.62
52.89366,4354.69
52.95366,4372.82
53.01366,4334.12
53.07366,4341.42
53.13366,4457.79
53.19366,4420.72
53.25366,4511.89
53.31366,4458.24
53.37366,4653.72
53.43366,5053.72
53.49366,5415.68
53.55366,6829.75
53.61366,8518.97
53.67366,7281
53.73366,6717.95
53.79366,5431.28
53.85366,4738.26
53.91366,4411.74
53.97366,4447.49
54.03366,4318.11
54.09366,4290.13
54.15366,4328.6
54.21366,4279.631
54.27366,4301.07
54.33366,4337.72
54.39366,4357.06
54.45366,4257.09
54.51366,4297.33
54.57366,4366.63
54.63366,4348.44
54.69366,4373.5
54.75366,4499.17
54.81366,4494.95
54.87366,4578.16
54.93366,4870.41
54.99366,5326.85
55.05366,5040.94
55.11366,4908.35
55.17366,4606.94
55.23366,4390.42
55.29366,4444.56
55.35366,4399.04
55.41366,4673.12
55.47366,4618.52
55.53366,4509.39
55.59366,4514.23
55.65366,4444.44
55.71366,4457.92
55.77366,4635.34
55.83366,5368.08
55.89366,6224.21
55.95366,5726.59
56.01366,5573.99
56.07366,4922.4
56.13366,4832.84
56.19366,4749.81
56.25366,4695.92
56.31366,4519.75
56.37366,4408.27
56.43366,4293.39
56.49366,4314.88
56.55366,4285.04
56.61366,4276.36
56.67366,4258.26
56.73366,4223.08
56.79366,4259.26
56.85366,4277.67
56.91366,4255.44
56.97366,4275.56
57.03366,4503.33
57.09366,4657.02
57.15366,5334.78
57.21366,6531.25
57.27366,6355.65
57.33366,5925.21
57.39366,5262.51
57.45366,4661.51
57.51366,4409.42
57.57366,4255.32
57.63366,4190.96
57.69366,4202.98
57.75366,4260.37
57.81366,4261.12
57.87366,4343.34
57.93366,4523.64
57.99366,4548.06
58.05366,4474.45
58.11366,4516.63
58.17366,4305.37
58.23366,4344.8
58.29366,4251.57
58.35366,4141.34
58.41366,4197.8
58.47366,4176.84
58.53366,4262.38
58.59366,4288.7
58.65366,4276.31
58.71366,4411.48
58.77366,4641.11
58.83366,4963.02
58.89366,4771.12
58.95366,4680.48
59.01366,4481.72
59.07366,4625.58
59.13366,4778.88
59.19366,4585.02
59.25366,4542.44
59.31366,4523.847
59.37366,4555.69
59.43366,4537.8
59.49366,4412.1
59.55366,4425.77
59.61366,4304.27
59.67366,4379.14
59.73366,4231.83
59.79366,4279.13
59.85366,4265.36
59.91366,4266.98
59.97366,4243.06
60.03366,4218.82
60.09366,4309.63
60.15366,4305.67
60.21366,4253.72
60.27366,4192.4
60.33366,4266.1
60.39366,4228.27
60.45366,4219.88
60.51366,4250.06
60.57366,4293.673
60.63366,4298.32
60.69366,4249.17
60.75366,4224.59
60.81366,4255.81
60.87366,4215.15
60.93366,4283.53
60.99366,4234.32
61.05366,4288.22
61.11366,4226.64
61.17366,4275.16
61.23366,4260.41
61.29366,4295.47
61.35366,4305.89
61.41366,4324.91
61.47366,4339.2
61.53366,4465.47
61.59366,4423.82
61.65366,4468.96
61.71366,4620.78
61.77366,4541.29
61.83366,4482.25
61.89366,4480.62
61.95366,4298.79
62.01366,4375.25
62.07366,4494.43
62.13366,4777.63
62.19366,5547.42
62.25366,6301.62
62.31366,5832.15
62.37366,5515.57
62.43366,5220.25
62.49366,4639.18
62.55366,4614.18
62.61366,4635.18
62.67366,4713.32
62.73366,4688.57
62.79366,4820.66
62.85366,5141.67
62.91366,6149.21
62.97366,6353.25
63.03366,5829.24
63.09366,5534.33
63.15366,5022.08
63.21366,4590.23
63.27366,4368.7
63.33366,4373.93
63.39366,4294.73
63.45366,4258.67
63.51366,4221.65
63.57366,4490.39
63.63366,4624.66
63.69366,4564.07
63.75366,4543.66
63.81366,4497.23
63.87366,4341.17
63.93366,4342.66
63.99366,4393.62
64.05366,4435.77
64.11366,4415.95
64.17366,4454.52
64.23366,4537.11
64.29366,4874.34
64.35366,5256.1
64.41366,6008.54
64.47366,6706.14
64.53366,6173.01
64.59366,5846.98
64.65366,5495.46
64.71366,5237.12
64.77366,4899.92
64.83366,4733.35
64.89366,4677.31
64.95366,4480.89
65.01366,4348.56
65.07366,4379.53
65.13366,4354.16
65.19366,4359.47
65.25366,4337.79
65.31366,4447.85
65.37366,4338.31
65.43366,4388.28
65.49366,4267.15
65.55366,4343.48
65.61366,4480.09
65.67366,4329.82
65.73366,4435.12
65.79366,4312.74
65.85366,4298.27
65.91366,4344.81
65.97366,4356.39
66.03366,4378
66.09366,4327.45
66.15366,4334.82
66.21366,4499.82
66.27366,4700.48
66.33366,5422.36
66.39366,5828.01
66.45366,5541.45
66.51366,5519.76
66.57366,5018.45
66.63366,4711.12
66.69366,4519.82
66.75366,4303.85
66.81366,4440.65
66.87366,4405.45
66.93366,4321.11
66.99366,4485.94
67.05366,4579.46
67.11366,4715.58
67.17366,5034.24
67.23366,4900.95
67.29366,4816.57
67.35366,4734.49
67.41366,4524.16
67.47366,4402.31
67.53366,4361.86
67.59366,4431.73
67.65366,4590.53
67.71366,4731.6
67.77366,5209.58
67.83366,5845.05
67.89366,5843.6
67.95366,5459.06
68.01366,5398.27
68.07366,4860.23
68.13366,4601.71
68.19366,4583.65
68.25366,4506.99
68.31366,4413.15
68.37366,4388.52
68.43366,4403.488
68.49366,4404.05
68.55366,4364.57
68.61366,4332.27
68.67366,4286.92
68.73366,4358.59
68.79366,4315.56
68.85366,4359.71
68.91366,4440.42
68.97366,4621.48
69.03366,4875.83
69.09366,4900.26
69.15366,4743.62
69.21366,4694.01
69.27366,4584.82
69.33366,4526.9
69.39366,4391.26
69.45366,4401.64
69.51366,4252.38
69.57366,4366.54
69.63366,4305.58
69.69366,4294.51
69.75366,4371.72
69.81366,4325.01
69.87366,4328.72
69.93366,4421.24
69.99366,4454.43
70.05366,4475.75
70.11366,4481.77
70.17366,4518.5
70.23366,4626.27
70.29366,4870.1
70.35366,5158.29
70.41366,5237.74
70.47366,5171.22
70.53366,5179.03
70.59366,4881.05
70.65366,4773.34
70.71366,4562.86
70.77366,4495.44
70.83366,4339.16
70.89366,4448.82
70.95366,4330.54
71.01366,4330.09
71.07366,4350.51
71.13366,4466.64
71.19366,4313.6
71.25366,4270.06
71.31366,4390.94
71.37366,4331.96
71.43366,4369.83
71.49366,4357.32
71.55366,4262.96
71.61366,4279.31
71.67366,4299.65
71.73366,4279.65
71.79366,4344.68
71.85366,4381.35
71.91366,4315.49
71.97366,4342.29
72.03366,4417.53
72.09366,4398.44
72.15366,4344.76
72.21366,4355.23
72.27366,4331.5
72.33366,4315.11
72.39366,4348.98
72.45366,4329.03
72.51366,4419.09
72.57366,4372.01
72.63366,4417.4
72.69366,4265.14
72.75366,4262.41
72.81366,4278.83
72.87366,4300.36
72.93366,4308.94
72.99366,4344.08
73.05366,4264.77
73.11366,4385.02
73.17366,4394.14
73.23366,4455.15
73.29366,4515.5
73.35366,4607.23
73.41366,4567.97
73.47366,4743.2
73.53366,5177.37
73.59366,6029.5
73.65366,6323.86
73.71366,5921.67
73.77366,5770.71
73.83366,5412.21
73.89366,4952.35
73.95366,4704.9
74.01366,4490.96
74.07366,4521.94
74.13366,4435.61
74.19366,4472.63
74.25366,4431.47
74.31366,4487.96
74.37366,4471.36
74.43366,4565.63
74.49366,4658.67
74.55366,4675.41
74.61366,5183.66
74.67366,5356.86
74.73366,5158.67
74.79366,5017.78
74.85366,4931.91
74.91366,4664.77
74.97366,4578.53
75.03366,4660.95
75.09366,4579.3
75.15366,4514.482
75.21366,4573
75.27366,4568.5
75.33366,4473.18
75.39366,4535
75.45366,4714.91
75.51366,4871.88
75.57366,5066.77
75.63366,4905.35
75.69366,4794.44
75.75366,4806.52
75.81366,4677.49
75.87366,4521.84
75.93366,4578.08
75.99366,4547.59
76.05366,4578.28
76.11366,4601.58
76.17366,4712
76.23366,4824.79
76.29366,4780.76
76.35366,4857.54
76.41366,4813.77
76.47366,4712.4
76.53366,4652.53
76.59366,4595.47
76.65366,4520.34
76.71366,4415.3
76.77366,4397.35
76.83366,4447.78
76.89366,4434.12
76.95366,4428.94
77.01366,4464.26
77.07366,4593.81
77.13366,4928.95
77.19366,5393.97
77.25366,5372.54
77.31366,5051.37
77.37366,5000.1
77.43366,4946.1
77.49366,4692.5
77.55366,4543.37
77.61366,4455.23
77.67366,4502.37
77.73366,4488.98
77.79366,4596.9
77.85366,4754.57
77.91366,4731.89
77.97366,4657.68
78.03366,4762.37
78.09366,4813
78.15366,4936.71
78.21366,4800.7
78.27366,4796.75
78.33366,4730.32
78.39366,4610.51
78.45366,4594.15
78.51366,4459.47
78.57366,4538.8
78.63366,4431.78
78.69366,4574.64
78.75366,4667.71
78.81366,5004.18
78.87366,5221.52
78.93366,5030.74
78.99366,5001.22
79.05366,4861.75
79.11366,4725.67
79.17366,4561.77
79.23366,4467.14
79.29366,4602.01
79.35366,4527.25
79.41366,4427.37
79.47366,4421.83
79.53366,4406.85
79.59366,4427.56
79.65366,4456.72
79.71366,4439.08
79.77366,4435.69
79.83366,4546.13
79.89366,4579.98
79.95366,4580.64
80.01366,4623.71
80.07366,4761.6
80.13366,4798.86
80.19366,4722.85
80.25366,4574.06
80.31366,4718.13
80.37366,4494.46
80.43366,4438.29
80.49366,4504.82
80.55366,4487.76
80.61366,4705.12
80.67366,5061.59
80.73366,5635.55
80.79366,5565.06
80.85366,5355.29
80.91366,5208.17
80.97366,5154.81
81.03366,4797.16
81.09366,4530.13
81.15366,4371.39
81.21366,4345.74
81.27366,4248.75
81.33366,4286.33
81.39366,4337.716
81.45366,4459.23
81.51366,4335.37
81.57366,4384.04
81.63366,4331.58
81.69366,4451.28
81.75366,4528.95
81.81366,4697.71
81.87366,4948.2
81.93366,4888.58
81.99366,4778.74
82.05366,4755.36
82.11366,4795.12
82.17366,4627.8
82.23366,4599.46
82.29366,4572.37
82.35366,4473.42
82.41366,4461.83
82.47366,4401.08
82.53366,4424.92
82.59366,4300.83
82.65366,4350.15
82.71366,4309.24
82.77366,4299.14
82.83366,4334.05
82.89366,4416.45
82.95366,4441.34
83.01366,4652.95
83.07366,4972.62
83.13366,5266.84
83.19366,5122.71
83.25366,4872.63
83.31366,4884.88
83.37366,4759.97
83.43366,4666.18
83.49366,4554.84
83.55366,4639.41
83.61366,4455.02
83.67366,4514.76
83.73366,4516.98
83.79366,4594.4
83.85366,4668.54
83.91366,4722.33
83.97366,4615.58
84.03366,4492.35
84.09366,4497.65
84.15366,4461.34
84.21366,4345.16
84.27366,4266.96
84.33366,4325.44
84.39366,4310.24
84.45366,4365.36
84.51366,4303.41
84.57366,4397.86
84.63366,4422.68
84.69366,4329.22
84.75366,4298.2
84.81366,4300.25
84.87366,4411.89
84.93366,4342.86
84.99366,4461.91
85.05366,4481.34
85.11366,4441.01
85.17366,4480.09
85.23366,4412.08
85.29366,4510.23
85.35366,4477.3
85.41366,4534.53
85.47366,4475.99
85.53366,4498.17
85.59366,4785.98
85.65366,4949.26
85.71366,5077.58
85.77366,5083.13
85.83366,4951.68
85.89366,4875.49
85.95366,4727.74
86.01366,4641.12
86.07366,4482.183
86.13366,4428.2
86.19366,4449.87
86.25366,4574.51
86.31366,4702.16
86.37366,4757.07
86.43366,4764.07
86.49366,4633.57
86.55366,4625.31
86.61366,4546.79
86.67366,4560.05
86.73366,4587.71
86.79366,4701.97
86.85366,4885.97
86.91366,4738.03
86.97366,4676.89
87.03366,4560.81
87.09366,4590.68
87.15366,4523.42
87.21366,4422.13
87.27366,4415.52
87.33366,4379.28
87.39366,4455.49
87.45366,4633.03
87.51366,4836.88
87.57366,5153.56
87.63366,5212.5
87.69366,5026.9
87.75366,4906.82
87.81366,4867.01
87.87366,4838.89
87.93366,4539.01
87.99366,4532.38
88.05366,4499.62
88.11366,4449.95
88.17366,4465.63
88.23366,4540.89
88.29366,4471.74
88.35366,4417.11
88.41366,4391.18
88.47366,4428.59
88.53366,4355.83
88.59366,4304.49
88.65366,4238.23
88.71366,4263.66
88.77366,4332.28
88.83366,4442.68
88.89366,4302.56
88.95366,4317.64
89.01366,4293.67
89.07366,4324.29
89.13366,4184.41
89.19366,4293.15
89.25366,4407.15
89.31366,4374.21
89.37366,4389.21
89.43366,4327.11
89.49366,4400.22
89.55366,4297.16
89.61366,4454.22
89.67366,4353.72
89.73366,4424.72
89.79366,4314.69