File: data/xrd_icdd_PDF/00-059-0269 (PD3).csv
5,1376
5.08,1295
5.16,1282
5.24,1292
5.32,1272
5.4,1252
5.48,1256
5.56,1233
5.64,1222
5.72,1242
5.8,1211
5.88,1227
5.96,1245
6.04,1229
6.12,1227
6.2,1232
6.28,1246
6.36,1228
6.44,1232
6.52,1216
6.6,1220
6.68,1223
6.76,1210
6.84,1216
6.92,1219
7,1208
7.08,1222
7.16,1189
7.24,1191
7.32,1205
7.4,1233
7.48,1183
7.56,1205
7.64,1197
7.72,1231
7.8,1222
7.88,1203
7.96,1222
8.04,1196
8.12,1226
8.2,1233
8.28,1244
8.36,1207
8.44,1253
8.52,1229
8.6,1207
8.68,1261
8.76,1241
8.84,1225
8.92,1219
9,1242
9.08,1196
9.16,1186
9.24,1212
9.32,1211
9.4,1215
9.48,1209
9.56,1200
9.64,1208
9.72,1212
9.8,1208
9.88,1203
9.96,1209
10.04,1199
10.12,1211
10.2,1202
10.28,1208
10.36,1203
10.44,1207
10.52,1205
10.6,1206
10.68,1200
10.76,1208
10.84,1212
10.92,1214
11,1207
11.08,1221
11.16,1226
11.24,1226
11.32,1227
11.4,1246
11.48,1260
11.56,1276
11.64,1285
11.72,1260
11.8,1251
11.88,1259
11.96,1272
12.04,1267
12.12,1265
12.2,1289
12.28,1232
12.36,1217
12.44,1212
12.52,1204
12.6,1182
12.68,1154
12.76,1161
12.84,1174
12.92,1185
13,1172
13.08,1178
13.16,1162
13.24,1162
13.32,1137
13.4,1171
13.48,1147
13.56,1154
13.64,1151
13.72,1144
13.8,1132
13.88,1155
13.96,1123
14.04,1141
14.12,1151
14.2,1120
14.28,1131
14.36,1113
14.44,1122
14.52,1111
14.6,1127
14.68,1142
14.76,1121
14.84,1122
14.92,1146
15,1106
15.08,1138
15.16,1154
15.24,1154
15.32,1163
15.4,1140
15.48,1121
15.56,1107
15.64,1140
15.72,1140
15.8,1135
15.88,1113
15.96,1086
16.04,1112
16.12,1131
16.2,1085
16.28,1103
16.36,1101
16.44,1105
16.52,1098
16.6,1103
16.68,1094
16.76,1092
16.84,1097
16.92,1091
17,1082
17.08,1093
17.16,1083
17.24,1089
17.32,1081
17.4,1083
17.48,1084
17.56,1074
17.64,1072
17.72,1075
17.8,1080
17.88,1078
17.96,1086
18.04,1090
18.12,1091
18.2,1097
18.28,1097
18.36,1106
18.44,1115
18.52,1080
18.6,1079
18.68,1088
18.76,1066
18.84,1046
18.92,1032
19,1064
19.08,1064
19.16,1059
19.24,1036
19.32,1009
19.4,1035
19.48,1053
19.56,1007
19.64,1025
19.72,1024
19.8,1027
19.88,1020
19.96,1025
20.04,1015
20.12,1013
20.2,1018
20.28,1012
20.36,1003
20.44,1013
20.52,1003
20.6,1009
20.68,1001
20.76,1003
20.84,1003
20.92,993
21,991
21.08,994
21.16,999
21.24,998
21.32,1005
21.4,1009
21.48,1010
21.56,1016
21.64,1016
21.72,1025
21.8,1035
21.88,1061
21.96,1026
22.04,1048
22.12,1026
22.2,1012
22.28,998
22.36,1002
22.44,970
22.52,949
22.6,957
22.68,966
22.76,984
22.84,975
22.92,981
23,984
23.08,1018
23.16,1059
23.24,1295
23.32,1898
23.4,2781
23.48,2546
23.56,1739
23.64,1233
23.72,1060
23.8,969
23.88,978
23.96,1004
24.04,1019
24.12,950
24.2,927
24.28,885
24.36,856
24.44,830
24.52,885
24.6,885
24.68,888
24.76,847
24.84,869
24.92,850
25,855
25.08,894
25.16,856
25.24,965
25.32,923
25.4,855
25.48,856
25.56,843
25.64,860
25.72,883
25.8,863
25.88,859
25.96,856
26.04,825
26.12,785
26.2,760
26.28,783
26.36,819
26.44,802
26.52,756
26.6,814
26.68,740
26.76,804
26.84,807
26.92,812
27,893
27.08,846
27.16,821
27.24,792
27.32,745
27.4,834
27.48,823
27.56,874
27.64,825
27.72,802
27.8,747
27.88,747
27.96,741
28.04,772
28.12,733
28.2,737
28.28,746
28.36,720
28.44,737
28.52,690
28.6,759
28.68,786
28.76,848
28.84,859
28.92,758
29,762
29.08,760
29.16,724
29.24,734
29.32,806
29.4,869
29.48,784
29.56,793
29.64,837
29.72,871
29.8,983
29.88,1081
29.96,1330
30.04,1628
30.12,2466
30.2,5632
30.28,12613
30.36,11600
30.44,4785
30.52,1477
30.6,971
30.68,779
30.76,741
30.84,702
30.92,684
31,651
31.08,631
31.16,669
31.24,625
31.32,625
31.4,590
31.48,593
31.56,637
31.64,619
31.72,596
31.8,581
31.88,598
31.96,589
32.04,604
32.12,592
32.2,581
32.28,595
32.36,545
32.44,596
32.52,590
32.6,671
32.68,669
32.76,696
32.84,731
32.92,751
33,722
33.08,681
33.16,693
33.24,734
33.32,672
33.4,741
33.48,672
33.56,662
33.64,655
33.72,579
33.8,629
33.88,643
33.96,661
34.04,700
34.12,607
34.2,613
34.28,558
34.36,626
34.44,659
34.52,651
34.6,664
34.68,673
34.76,699
34.84,677
34.92,678
35,679
35.08,683
35.16,635
35.24,532
35.32,619
35.4,592
35.48,631
35.56,613
35.64,689
35.72,821
35.8,1373
35.88,3307
35.96,7405
36.04,6925
36.12,3721
36.2,1439
36.28,818
36.36,618
36.44,578
36.52,522
36.6,498
36.68,470
36.76,474
36.84,471
36.92,464
37,477
37.08,450
37.16,471
37.24,480
37.32,547
37.4,564
37.48,615
37.56,609
37.64,611
37.72,576
37.8,611
37.88,602
37.96,589
38.04,611
38.12,591
38.2,635
38.28,563
38.36,535
38.44,481
38.52,484
38.6,579
38.68,559
38.76,550
38.84,583
38.92,572
39,502
39.08,514
39.16,531
39.24,569
39.32,591
39.4,612
39.48,552
39.56,548
39.64,540
39.72,576
39.8,550
39.88,564
39.96,554
40.04,511
40.12,545
40.2,431
40.28,469
40.36,533
40.44,527
40.52,536
40.6,514
40.68,487
40.76,503
40.84,437
40.92,497
41,530
41.08,522
41.16,534
41.24,543
41.32,568
41.4,544
41.48,544
41.56,542
41.64,543
41.72,590
41.8,536
41.88,470
41.96,451
42.04,405
42.12,490
42.2,485
42.28,507
42.36,455
42.44,439
42.52,399
42.6,433
42.68,445
42.76,441
42.84,426
42.92,486
43,522
43.08,648
43.16,1133
43.24,2405
43.32,2635
43.4,1700
43.48,927
43.56,652
43.64,602
43.72,649
43.8,586
43.88,506
43.96,414
44.04,393
44.12,414
44.2,390
44.28,384
44.36,390
44.44,411
44.52,432
44.6,480
44.68,506
44.76,488
44.84,489
44.92,459
45,439
45.08,436
45.16,474
45.24,497
45.32,593
45.4,1093
45.48,1749
45.56,1487
45.64,1102
45.72,631
45.8,468
45.88,433
45.96,441
46.04,451
46.12,498
46.2,527
46.28,485
46.36,427
46.44,430
46.52,390
46.6,341
46.68,352
46.76,381
46.84,364
46.92,400
47,432
47.08,408
47.16,426
47.24,408
47.32,412
47.4,438
47.48,625
47.56,1284
47.64,1694
47.72,1259
47.8,906
47.88,494
47.96,435
48.04,397
48.12,390
48.2,334
48.28,352
48.36,368
48.44,364
48.52,347
48.6,385
48.68,402
48.76,471
48.84,483
48.92,445
49,483
49.08,507
49.16,483
49.24,492
49.32,482
49.4,477
49.48,565
49.56,969
49.64,2039
49.72,2380
49.8,1649
49.88,1105
49.96,559
50.04,474
50.12,467
50.2,503
50.28,480
50.36,485
50.44,409
50.52,353
50.6,373
50.68,340
50.76,314
50.84,338
50.92,329
51,326
51.08,304
51.16,323
51.24,338
51.32,300
51.4,322
51.48,308
51.56,319
51.64,319
51.72,304
51.8,314
51.88,343
51.96,335
52.04,294
52.12,338
52.2,347
52.28,388
52.36,405
52.44,287
52.52,309
52.6,307
52.68,308
52.76,305
52.84,257
52.92,310
53,375
53.08,393
53.16,439
53.24,403
53.32,397
53.4,381
53.48,397
53.56,515
53.64,596
53.72,509
53.8,468
53.88,329
53.96,307
54.04,311
54.12,279
54.2,316
54.28,293
54.36,284
54.44,293
54.52,326
54.6,346
54.68,322
54.76,296
54.84,285
54.92,284
55,297
55.08,284
55.16,320
55.24,284
55.32,273
55.4,326
55.48,320
55.56,347
55.64,341
55.72,308
55.8,302
55.88,302
55.96,313
56.04,320
56.12,402
56.2,417
56.28,462
56.36,421
56.44,352
56.52,338
56.6,314
56.68,319
56.76,275
56.84,288
56.92,285
57,269
57.08,290
57.16,296
57.24,335
57.32,388
57.4,399
57.48,447
57.56,450
57.64,394
57.72,349
57.8,299
57.88,304
57.96,260
58.04,275
58.12,296
58.2,287
58.28,319
58.36,370
58.44,378
58.52,390
58.6,388
58.68,390
58.76,408
58.84,383
58.92,329
59,334
59.08,353
59.16,344
59.24,337
59.32,355
59.4,388
59.48,412
59.56,350
59.64,317
59.72,316
59.8,331
59.88,290
59.96,285
60.04,272
60.12,260
60.2,328
60.28,290
60.36,316
60.44,346
60.52,385
60.6,399
60.68,474
60.76,593
60.84,1084
60.92,2635
61,3133
61.08,2159
61.16,1791
61.24,1000
61.32,541
61.4,436
61.48,352
61.56,347
61.64,294
61.72,335
61.8,322
61.88,308
61.96,341
62.04,362
62.12,382
62.2,458
62.28,468
62.36,507
62.44,519
62.52,532
62.6,695
62.68,1247
62.76,1302
62.84,950
62.92,832
63,553
63.08,350
63.16,338
63.24,299
63.32,317
63.4,275
63.48,267
63.56,263
63.64,284
63.72,287
63.8,287
63.88,302
63.96,322
64.04,355
64.12,359
64.2,403
64.28,516
64.36,966
64.44,1549
64.52,1357
64.6,1102
64.68,966
64.76,678
64.84,468
64.92,429
65,370
65.08,323
65.16,290
65.24,263
65.32,287
65.4,293
65.48,234
65.56,285
65.64,257
65.72,334
65.8,265
65.88,228
65.96,252
66.04,236
66.12,244
66.2,286
66.28,250
66.36,363
66.44,323
66.52,258
66.6,262
66.68,314
66.76,288
66.84,257
66.92,263
67,242
67.08,254
67.16,261
67.24,248
67.32,284
67.4,308
67.48,317
67.56,308
67.64,364
67.72,448
67.8,587
67.88,532
67.96,444
68.04,393
68.12,344
68.2,311
68.28,269
68.36,300
68.44,311
68.52,341
68.6,337
68.68,288
68.76,287
68.84,275
68.92,258
69,233
69.08,243
69.16,273
69.24,302
69.32,408
69.4,593
69.48,933
69.56,767
69.64,550
69.72,529
69.8,408
69.88,248
69.96,278
70.04,242
70.12,245
70.2,267
70.28,243
70.36,246
70.44,233
70.52,214
70.6,255
70.68,245
70.76,284
70.84,269
70.92,341
71,374
71.08,438
71.16,444
71.24,387
71.32,394
71.4,314
71.48,302
71.56,284
71.64,257
71.72,276
71.8,272
71.88,254
71.96,285
72.04,300
72.12,290
72.2,291
72.28,281
72.36,287
72.44,288
72.52,290
72.6,362
72.68,489
72.76,612
72.84,474
72.92,435
73,429
73.08,343
73.16,290
73.24,308
73.32,303
73.4,308
73.48,253
73.56,271
73.64,292
73.72,325
73.8,262
73.88,290
73.96,287
74.04,368
74.12,418
74.2,661
74.28,1389
74.36,2135
74.44,1655
74.52,1167
74.6,1136
74.68,711
74.76,426
74.84,343
74.92,284
75,275
75.08,248
75.16,260
75.24,264
75.32,255
75.4,291
75.48,257
75.56,266
75.64,273
75.72,316
75.8,356
75.88,535
75.96,713
76.04,565
76.12,456
76.2,450
76.28,340
76.36,267
76.44,263
76.52,269
76.6,251
76.68,233
76.76,248
76.84,254
76.92,228
77,251
77.08,220
77.16,219
77.24,195
77.32,208
77.4,208
77.48,205
77.56,225
77.64,217
77.72,211
77.8,237
77.88,205
77.96,214
78.04,205
78.12,208
78.2,208
78.28,204
78.36,211
78.44,174
78.52,202
78.6,217
78.68,219
78.76,216
78.84,205
78.92,208
79,193
79.08,208
79.16,189
79.24,202
79.32,204
79.4,243
79.48,216
79.56,225
79.64,234
79.72,216
79.8,210
79.88,207
79.96,199
80.04,205
80.12,214
80.2,214
80.28,227
80.36,199
80.44,236
80.52,284
80.6,379
80.68,507
80.76,468
80.84,340
80.92,388
81,310
81.08,293
81.16,260
81.24,252
81.32,251
81.4,234
81.48,255
81.56,260
81.64,291
81.72,300
81.8,242
81.88,245
81.96,243
82.04,230
82.12,228
82.2,231
82.28,216
82.36,184
82.44,210
82.52,211
82.6,205
82.68,199
82.76,205
82.84,174
82.92,165
83,187
83.08,189
83.16,199
83.24,205
83.32,195
83.4,178
83.48,207
83.56,193
83.64,230
83.72,207
83.8,255
83.88,255
83.96,208
84.04,214
84.12,211
84.2,204
84.28,196
84.36,199
84.44,204
84.52,208
84.6,189
84.68,190
84.76,205
84.84,236
84.92,220
85,242
85.08,230
85.16,255
85.24,240
85.32,249
85.4,236
85.48,242
85.56,249
85.64,263
85.72,252
85.8,248
85.88,248
85.96,223
86.04,225
86.12,263
86.2,255
86.28,275
86.36,249
86.44,261
86.52,245
86.6,260
86.68,278
86.76,323
86.84,391
86.92,435
87,382
87.08,352
87.16,359
87.24,352
87.32,302
87.4,284
87.48,284
87.56,269
87.64,287
87.72,275
87.8,245
87.88,251
87.96,231
88.04,257
88.12,242
88.2,281
88.28,305
88.36,403
88.44,486
88.52,448
88.6,368
88.68,397
88.76,343
88.84,278
88.92,242
89,195
89.08,205
89.16,228
89.24,202
89.32,242
89.4,258
89.48,258
89.56,323
89.64,335
89.72,355
89.8,447
89.88,746
89.96,1120
90.04,953
90.12,690
90.2,616
90.28,622
90.36,476
90.44,344
90.52,278
90.6,269
90.68,237
90.76,230
90.84,236
90.92,199
91,208
91.08,220
91.16,202
91.24,223
91.32,220
91.4,202
91.48,216
91.56,230
91.64,228
91.72,230
91.8,227
91.88,258
91.96,236
92.04,211
92.12,242
92.2,236
92.28,249
92.36,242
92.44,269
92.52,282
92.6,260
92.68,294
92.76,276
92.84,300
92.92,359
93,488
93.08,539
93.16,447
93.24,350
93.32,390
93.4,349
93.48,314
93.56,223
93.64,222
93.72,198
93.8,195
93.88,213
93.96,217
94.04,223
94.12,279
94.2,281
94.28,296
94.36,299
94.44,347
94.52,397
94.6,504
94.68,408
94.76,362
94.84,294
94.92,331
95,263
95.08,231
95.16,248
95.24,213
95.32,242
95.4,217
95.48,230
95.56,230
95.64,225
95.72,233
95.8,234
95.88,195
95.96,223
96.04,237
96.12,233
96.2,242
96.28,236
96.36,222
96.44,211
96.52,231
96.6,220
96.68,230
96.76,214
96.84,214
96.92,207
97,211
97.08,227
97.16,242
97.24,223
97.32,233
97.4,249
97.48,275
97.56,374
97.64,572
97.72,725
97.8,628
97.88,426
97.96,399
98.04,482
98.12,420
98.2,284
98.28,275
98.36,237
98.44,230
98.52,249
98.6,258
98.68,293
98.76,269
98.84,276
98.92,319
99,412
99.08,566
99.16,938
99.24,1392
99.32,1502
99.4,997
99.48,737
99.56,915
99.64,834
99.72,607
99.8,384
99.88,293
99.96,291
100.04,257
100.12,245
100.2,225
100.28,193
100.36,227
100.44,214
100.52,228
100.6,220
100.68,217
100.76,231
100.84,227
100.92,214
101,236
101.08,260
101.16,323
101.24,320
101.32,304
101.4,313
101.48,270
101.56,266
101.64,258
101.72,267
101.8,282
101.88,252
101.96,266
102.04,267
102.12,325
102.2,368
102.28,545
102.36,743
102.44,846
102.52,604
102.6,467
102.68,495
102.76,532
102.84,504
102.92,359
103,302
103.08,272
103.16,267
103.24,223
103.32,230
103.4,231
103.48,228
103.56,223
103.64,205
103.72,220
103.8,210
103.88,220
103.96,199
104.04,208
104.12,231
104.2,213
104.28,216
104.36,207
104.44,225
104.52,219
104.6,223
104.68,236
104.76,220
104.84,230
104.92,216
105,234
105.08,222
105.16,248
105.24,252
105.32,257
105.4,350
105.48,390
105.56,506
105.64,439
105.72,402
105.8,341
105.88,355
105.96,355
106.04,296
106.12,290
106.2,240
106.28,240
106.36,227
106.44,230
106.52,208
106.6,227
106.68,198
106.76,187
106.84,214
106.92,217
107,240
107.08,264
107.16,272
107.24,284
107.32,269
107.4,257
107.48,246
107.56,257
107.64,239
107.72,210
107.8,210
107.88,248
107.96,230
108.04,248
108.12,255
108.2,246
108.28,260
108.36,242
108.44,278
108.52,257
108.6,228
108.68,243
108.76,270
108.84,257
108.92,267
109,252
109.08,249
109.16,266
109.24,272
109.32,251
109.4,225
109.48,228
109.56,234
109.64,240
109.72,217
109.8,198
109.88,219
109.96,211
110.04,208
110.12,193
110.2,192
110.28,184
110.36,196
110.44,192
110.52,193
110.6,210
110.68,181
110.76,207
110.84,199
110.92,223
111,213
111.08,213
111.16,237
111.24,208
111.32,205
111.4,234
111.48,213
111.56,217
111.64,249
111.72,261
111.8,251
111.88,326
111.96,468
112.04,606
112.12,622
112.2,541
112.28,411
112.36,373
112.44,378
112.52,420
112.6,420
112.68,320
112.76,273
112.84,248
112.92,236
113,255
113.08,222
113.16,233
113.24,231
113.32,237
113.4,231
113.48,207
113.56,222
113.64,245
113.72,276
113.8,272
113.88,251
113.96,255
114.04,242
114.12,242
114.2,272
114.28,255
114.36,243
114.44,214
114.52,255
114.6,217
114.68,248
114.76,273
114.84,251
114.92,273
115,251
115.08,278
115.16,299
115.24,349
115.32,480
115.4,599
115.48,667
115.56,615
115.64,504
115.72,420
115.8,403
115.88,465
115.96,427
116.04,364
116.12,293
116.2,254
116.28,254
116.36,230
116.44,220
116.52,239
116.6,208
116.68,225
116.76,243
116.84,228
116.92,225
117,231
117.08,245
117.16,228
117.24,233
117.32,217
117.4,222
117.48,225
117.56,213
117.64,220
117.72,223
117.8,213
117.88,228
117.96,196
118.04,199
118.12,214
118.2,243
118.28,193
118.36,216
118.44,210
118.52,245
118.6,239
118.68,233
118.76,281
118.84,293
118.92,338
119,320
119.08,296
119.16,245
119.24,297
119.32,291
119.4,276
119.48,320
119.56,285
119.64,260
119.72,252
119.8,276
119.88,231
119.96,223
120.02,230