File: data/xrd_icdd_PDF/00-049-1085 (PD3).csv
10,5995
10.07,6066
10.14,5984
10.21,5976
10.28,5925
10.35,5982
10.42,5897
10.49,5857
10.56,5945
10.63,5938
10.7,5925
10.77,5896
10.84,5896
10.91,5866
10.98,5834
11.05,5795
11.12,5812
11.19,5814
11.26,5731
11.33,5825
11.4,6011
11.47,6062
11.54,6157
11.61,6644
11.68,7535
11.75,9330
11.82,12563
11.89,16576
11.96,13977
12.03,8168
12.1,6229
12.17,5815
12.24,5686
12.31,5483
12.38,5634
12.45,5612
12.52,5632
12.59,5653
12.66,5621
12.73,5505
12.8,5547
12.87,5602
12.94,5578
13.01,5610
13.08,5521
13.15,5545
13.22,5610
13.29,5537
13.36,5605
13.43,5601
13.5,5480
13.57,5499
13.64,5562
13.71,5607
13.78,5520
13.85,5571
13.92,5626
13.99,5537
14.06,5735
14.13,5533
14.2,5548
14.27,5701
14.34,5610
14.41,5747
14.48,5446
14.55,5440
14.62,5620
14.69,5558
14.76,5432
14.83,5587
14.9,5766
14.97,5974
15.04,6024
15.11,5925
15.18,5847
15.25,6069
15.32,5955
15.39,5535
15.46,5580
15.53,5435
15.6,5624
15.67,5372
15.74,5496
15.81,5499
15.88,5462
15.95,5313
16.02,5478
16.09,5332
16.16,5500
16.23,5353
16.3,5348
16.37,5375
16.44,5432
16.51,5263
16.58,5385
16.65,5369
16.72,5382
16.79,5334
16.86,5433
16.93,5328
17,5304
17.07,5338
17.14,5195
17.21,5328
17.28,5360
17.35,5297
17.42,5331
17.49,5160
17.56,5177
17.63,5229
17.7,5198
17.77,5231
17.84,5240
17.91,5203
17.98,5220
18.05,5295
18.12,5418
18.19,6210
18.26,7750
18.33,9712
18.4,7386
18.47,5591
18.54,5304
18.61,5278
18.68,5593
18.75,6187
18.82,5966
18.89,5170
18.96,5139
19.03,4940
19.1,4975
19.17,4958
19.24,5056
19.31,5033
19.38,4970
19.45,4988
19.52,4924
19.59,4964
19.66,4954
19.73,4952
19.8,5034
19.87,5068
19.94,4879
20.01,5003
20.08,4963
20.15,4874
20.22,4666
20.29,4871
20.36,4799
20.43,4881
20.5,4822
20.57,4883
20.64,4813
20.71,4683
20.78,4825
20.85,4676
20.92,4647
20.99,4682
21.06,4706
21.13,4835
21.2,4834
21.27,4726
21.34,4728
21.41,4646
21.48,4746
21.55,4720
21.62,4942
21.69,5066
21.76,5703
21.83,7613
21.9,8533
21.97,11602
22.04,12331
22.11,8877
22.18,7674
22.25,5425
22.32,4964
22.39,5057
22.46,5259
22.53,4994
22.6,4685
22.67,4455
22.74,4437
22.81,4630
22.88,4564
22.95,4635
23.02,4554
23.09,4454
23.16,4410
23.23,4547
23.3,4453
23.37,4490
23.44,4414
23.51,4532
23.58,4474
23.65,4379
23.72,4501
23.79,4466
23.86,4514
23.93,4711
24,4807
24.07,4596
24.14,4441
24.21,4510
24.28,4422
24.35,4428
24.42,4358
24.49,4636
24.56,5026
24.63,4943
24.7,4438
24.77,4417
24.84,4259
24.91,4267
24.98,4120
25.05,4341
25.12,4175
25.19,4281
25.26,4284
25.33,4178
25.4,4136
25.47,4091
25.54,4190
25.61,4199
25.68,4168
25.75,4248
25.82,4468
25.89,5069
25.96,5263
26.03,4361
26.1,4030
26.17,4206
26.24,4012
26.31,4120
26.38,4027
26.45,4105
26.52,4040
26.59,4104
26.66,4157
26.73,4140
26.8,4215
26.87,4099
26.94,4033
27.01,4069
27.08,4043
27.15,4291
27.22,4906
27.29,5817
27.36,4918
27.43,4735
27.5,6066
27.57,6959
27.64,4686
27.71,4126
27.78,3973
27.85,3924
27.92,3887
27.99,3916
28.06,3911
28.13,3921
28.2,3948
28.27,4000
28.34,4090
28.41,3948
28.48,4055
28.55,3977
28.62,4087
28.69,4067
28.76,4296
28.83,4346
28.9,3892
28.97,3802
29.04,3833
29.11,3872
29.18,3904
29.25,3798
29.32,3837
29.39,3772
29.46,3869
29.53,3786
29.6,3907
29.67,3959
29.74,3817
29.81,3935
29.88,3938
29.95,4066
30.02,4064
30.09,4524
30.16,6571
30.23,10514
30.3,9668
30.37,12849
30.44,19674
30.51,16055
30.58,6990
30.65,5203
30.72,4848
30.79,4668
30.86,5629
30.93,5214
31,5043
31.07,4574
31.14,3936
31.21,3861
31.28,3878
31.35,3806
31.42,3834
31.49,3887
31.56,3912
31.63,4569
31.7,7309
31.77,13894
31.84,9889
31.91,4744
31.98,3879
32.05,3817
32.12,3739
32.19,3694
32.26,3601
32.33,3679
32.4,4031
32.47,6064
32.54,12632
32.61,15474
32.68,6477
32.75,4115
32.82,3718
32.89,3676
32.96,3648
33.03,3598
33.1,3667
33.17,3653
33.24,3681
33.31,3659
33.38,3488
33.45,3653
33.52,3600
33.59,3673
33.66,3465
33.73,3636
33.8,3544
33.87,3604
33.94,3628
34.01,4169
34.08,4761
34.15,3809
34.22,3553
34.29,3575
34.36,3747
34.43,3754
34.5,3711
34.57,3872
34.64,4453
34.71,4081
34.78,3852
34.85,3901
34.92,3974
34.99,4312
35.06,3678
35.13,3411
35.2,3504
35.27,3643
35.34,3920
35.41,3949
35.48,3652
35.55,3540
35.62,3378
35.69,3375
35.76,3409
35.83,3380
35.9,3352
35.97,3458
36.04,3355
36.11,3413
36.18,3428
36.25,3451
36.32,3493
36.39,3373
36.46,3288
36.53,3380
36.6,3318
36.67,3446
36.74,3407
36.81,3165
36.88,3349
36.95,3354
37.02,3413
37.09,3860
37.16,4348
37.23,4080
37.3,3737
37.37,4545
37.44,6157
37.51,4403
37.58,3582
37.65,3703
37.72,4328
37.79,4141
37.86,3386
37.93,3373
38,3329
38.07,3475
38.14,3469
38.21,3358
38.28,3283
38.35,3192
38.42,3295
38.49,3324
38.56,3317
38.63,3189
38.7,3289
38.77,3149
38.84,3193
38.91,3306
38.98,3264
39.05,3376
39.12,3500
39.19,4016
39.26,5548
39.33,4692
39.4,3519
39.47,3257
39.54,3195
39.61,3208
39.68,3400
39.75,3959
39.82,4939
39.89,4965
39.96,3928
40.03,3378
40.1,3639
40.17,4375
40.24,4597
40.31,3452
40.38,3147
40.45,3262
40.52,3427
40.59,3745
40.66,3558
40.73,3648
40.8,4890
40.87,5686
40.94,4047
41.01,3432
41.08,3900
41.15,4023
41.22,3618
41.29,3371
41.36,3823
41.43,5688
41.5,6201
41.57,4012
41.64,3221
41.71,3237
41.78,3162
41.85,3042
41.92,3164
41.99,3060
42.06,3076
42.13,3113
42.2,3085
42.27,3091
42.34,2979
42.41,3098
42.48,2996
42.55,3119
42.62,2974
42.69,3043
42.76,3118
42.83,3095
42.9,3064
42.97,3331
43.04,3908
43.11,5605
43.18,5100
43.25,3452
43.32,3279
43.39,3509
43.46,5005
43.53,4388
43.6,3271
43.67,3009
43.74,3057
43.81,3043
43.88,2987
43.95,3016
44.02,3083
44.09,3435
44.16,3223
44.23,3107
44.3,3094
44.37,3086
44.44,3496
44.51,5180
44.58,6518
44.65,4478
44.72,4211
44.79,4767
44.86,5762
44.93,6684
45,5415
45.07,4472
45.14,3887
45.21,4022
45.28,3344
45.35,2981
45.42,3150
45.49,3086
45.56,3022
45.63,3041
45.7,2996
45.77,3121
45.84,3450
45.91,3605
45.98,3020
46.05,2982
46.12,2987
46.19,3005
46.26,3013
46.33,3209
46.4,3151
46.47,2999
46.54,2927
46.61,2895
46.68,2935
46.75,2988
46.82,2984
46.89,2963
46.96,3233
47.03,3932
47.1,4359
47.17,3324
47.24,3095
47.31,2919
47.38,2921
47.45,2979
47.52,3057
47.59,3005
47.66,2993
47.73,2924
47.8,2992
47.87,2925
47.94,2905
48.01,2981
48.08,3159
48.15,3425
48.22,3340
48.29,2950
48.36,2918
48.43,2818
48.5,2853
48.57,2815
48.64,3028
48.71,3497
48.78,4497
48.85,3989
48.92,3293
48.99,3535
49.06,4284
49.13,4381
49.2,3566
49.27,3185
49.34,2964
49.41,3054
49.48,3610
49.55,4155
49.62,4299
49.69,4548
49.76,3733
49.83,3333
49.9,3646
49.97,4132
50.04,4257
50.11,3985
50.18,3861
50.25,3018
50.32,2894
50.39,2849
50.46,2952
50.53,2789
50.6,2761
50.67,2775
50.74,2781
50.81,2849
50.88,2776
50.95,2737
51.02,2992
51.09,3456
51.16,3630
51.23,3294
51.3,2926
51.37,2833
51.44,2758
51.51,2818
51.58,2817
51.65,2797
51.72,2894
51.79,2914
51.86,3355
51.93,3262
52,2913
52.07,2843
52.14,3199
52.21,3302
52.28,3016
52.35,2966
52.42,3008
52.49,3040
52.56,3037
52.63,3728
52.7,5289
52.77,5101
52.84,3362
52.91,3067
52.98,3437
53.05,3493
53.12,3347
53.19,3587
53.26,3581
53.33,3536
53.4,3386
53.47,2858
53.54,2824
53.61,2676
53.68,2779
53.75,2832
53.82,2861
53.89,2916
53.96,2942
54.03,2958
54.1,3348
54.17,3076
54.24,2726
54.31,2705
54.38,2831
54.45,2710
54.52,2816
54.59,2783
54.66,2745
54.73,2873
54.8,2961
54.87,3167
54.94,3039
55.01,2722
55.08,2698
55.15,2744
55.22,2723
55.29,2868
55.36,3060
55.43,3099
55.5,2847
55.57,2879
55.64,3445
55.71,3977
55.78,4382
55.85,5309
55.92,4454
55.99,3602
56.06,3085
56.13,2701
56.2,2810
56.27,2830
56.34,2874
56.41,2770
56.48,2799
56.55,2766
56.62,2881
56.69,3420
56.76,3881
56.83,3469
56.9,3462
56.97,3106
57.04,3110
57.11,4202
57.18,4550
57.25,3452
57.32,2939
57.39,2743
57.46,2698
57.53,2748
57.6,2736
57.67,2811
57.74,2706
57.81,2873
57.88,2998
57.95,3298
58.02,3188
58.09,3286
58.16,3106
58.23,2827
58.3,2750
58.37,2703
58.44,2877
58.51,3094
58.58,2976
58.65,3023
58.72,2899
58.79,2780
58.86,3069
58.93,2982
59,2731
59.07,2737
59.14,2676
59.21,2656
59.28,2648
59.35,2714
59.42,2711
59.49,2745
59.56,2727
59.63,3122
59.7,4048
59.77,3914
59.84,3277
59.91,2856
59.98,2719
60.05,2884
60.12,3196
60.19,3337
60.26,2841
60.33,2866
60.4,3035
60.47,3896
60.54,3990
60.61,3431
60.68,3022
60.75,2774
60.82,2705
60.89,2619
60.96,2578
61.03,2632
61.1,2850
61.17,2820
61.24,2763
61.31,2811
61.38,2762
61.45,2612
61.52,2663
61.59,2670
61.66,2581
61.73,2522
61.8,2631
61.87,2599
61.94,2524
62.01,2745
62.08,2686
62.15,2635
62.22,2662
62.29,3127
62.36,3406
62.43,2937
62.5,2899
62.57,3233
62.64,3518
62.71,3354
62.78,3343
62.85,3406
62.92,3238
62.99,2986
63.06,2795
63.13,2776
63.2,2800
63.27,2973
63.34,3181
63.41,3307
63.48,3070
63.55,2793
63.62,2736
63.69,2735
63.76,2732
63.83,2660
63.9,2689
63.97,2607
64.04,2670
64.11,2681
64.18,2742
64.25,2693
64.32,2655
64.39,2678
64.46,2828
64.53,3118
64.6,3215
64.67,3047
64.74,3071
64.81,3237
64.88,3127
64.95,2834
65.02,2683
65.09,2579
65.16,2549
65.23,2701
65.3,2800
65.37,2825
65.44,2627
65.51,2627
65.58,2674
65.65,2828
65.72,2766
65.79,2668
65.86,2581
65.93,2687
66,2741
66.07,2622
66.14,2732
66.21,2911
66.28,3212
66.35,3238
66.42,3982
66.49,3678
66.56,2986
66.63,2678
66.7,2745
66.77,2576
66.84,2541
66.91,2763
66.98,2817
67.05,2858
67.12,2756
67.19,2679
67.26,2645
67.33,2621
67.4,2690
67.47,2713
67.54,2682
67.61,2707
67.68,2687
67.75,2961
67.82,2955
67.89,2755
67.96,2660
68.03,2743
68.1,2608
68.17,2685
68.24,2996
68.31,3417
68.38,3003
68.45,2725
68.52,2749
68.59,2777
68.66,2902
68.73,2794
68.8,2637
68.87,2703
68.94,2860
69.01,3159
69.08,2850
69.15,2802
69.22,2666
69.29,2741
69.36,2719
69.43,2676
69.5,2693
69.57,2664
69.64,2684
69.71,2876
69.78,2757
69.85,2772
69.92,2639
69.99,2749
70.06,2578
70.13,2577
70.2,2587
70.27,2598
70.34,2523
70.41,2609
70.48,2774
70.55,2910
70.62,3214
70.69,3251
70.76,3224
70.83,2933
70.9,2943
70.97,2767
71.04,2689
71.11,2763
71.18,2598
71.25,2639
71.32,2643
71.39,2601
71.46,2566
71.53,2661
71.6,2710
71.67,2729
71.74,2637
71.81,2972
71.88,3575
71.95,4051
72.02,3441
72.09,2872
72.16,2982
72.23,3176
72.3,2886
72.37,2799
72.44,2960
72.51,3042
72.58,3060
72.65,2965
72.72,3063
72.79,2995
72.86,3144
72.93,2895
73,2722
73.07,2759
73.14,2759
73.21,2701
73.28,2582
73.35,2552
73.42,2592
73.49,2548
73.56,2599
73.63,2561
73.7,2731
73.77,3183
73.84,3489
73.91,3131
73.98,2847
74.05,2649
74.12,2592
74.19,2523
74.26,2526
74.33,2581
74.4,2688
74.47,2786
74.54,2682
74.61,2574
74.68,2716
74.75,3004
74.82,3518
74.89,3533
74.96,3435
75.03,3226
75.1,2967
75.17,2884
75.24,2716
75.31,2758
75.38,2966
75.45,2644
75.52,2648
75.59,2981
75.66,3020
75.73,2829
75.8,2677
75.87,2623
75.94,2546
76.01,2419
76.08,2601
76.15,2585
76.22,2602
76.29,2547
76.36,2521
76.43,2615
76.5,2558
76.57,2543
76.64,2483
76.71,2594
76.78,2553
76.85,2568
76.92,2619
76.99,2579
77.06,2594
77.13,2798
77.2,2681
77.27,2699
77.34,2765
77.41,2662
77.48,2539
77.55,2601
77.62,2500
77.69,2534
77.76,2631
77.83,2553
77.9,2577
77.97,2588
78.04,2693
78.11,2787
78.18,2787
78.25,2679
78.32,2814
78.39,2684
78.46,2721
78.53,3045
78.6,3121
78.67,3063
78.74,2874
78.81,2768
78.88,2775
78.95,2785
79.02,2826
79.09,2778
79.16,2653
79.23,2651
79.3,2717
79.37,2709
79.44,2798
79.51,3188
79.58,3156
79.65,3123
79.72,2895
79.79,2839
79.86,2970
79.93,3119
80,3024
80.07,2812
80.14,2802
80.21,2632
80.28,2841
80.35,2756
80.42,2855
80.49,2834
80.56,2971
80.63,3123
80.7,2946
80.77,2959
80.84,2779
80.91,2811
80.98,2850
81.05,2673
81.12,2736
81.19,2657
81.26,2707
81.33,2752
81.4,2726
81.47,2877
81.54,2858
81.61,2894
81.68,2732
81.75,2750
81.82,2892
81.89,2923
81.96,3053
82.03,2923
82.1,2780
82.17,2680
82.24,2658
82.31,2677
82.38,2573
82.45,2626
82.52,2606
82.59,2681
82.66,2667
82.73,2822
82.8,2845
82.87,2837
82.94,2812
83.01,2700
83.08,2588
83.15,2684
83.22,2704
83.29,2781
83.36,2663
83.43,2637
83.5,2762
83.57,2763
83.64,2813
83.71,2808
83.78,2860
83.85,2766
83.92,2821
83.99,2899
84.06,3118
84.13,3174
84.2,3044
84.27,2736
84.34,2541
84.41,2694
84.48,2833
84.55,2886
84.62,2764
84.69,2780
84.76,2711
84.83,2813
84.9,2802
84.97,2698
85.04,2684
85.11,2738
85.18,2868
85.25,3006
85.32,3040
85.39,3038
85.46,2850
85.53,2704
85.6,2779
85.67,2909
85.74,3031
85.81,3135
85.88,3027
85.95,2790
86.02,2718
86.09,2757
86.16,2814
86.23,2791
86.3,2822
86.37,2765
86.44,2790
86.51,2733
86.58,2730
86.65,2725
86.72,2749
86.79,2974
86.86,3065
86.93,3149
87,2855
87.07,2799
87.14,2746
87.21,2885
87.28,2789
87.35,2789
87.42,2785
87.49,2771
87.56,2892
87.63,2831
87.7,2697
87.77,2685
87.84,2693
87.91,2712
87.98,2631
88.05,2740
88.12,2647
88.19,2694
88.26,2745
88.33,2605
88.4,2771
88.47,2793
88.54,2860
88.61,2780
88.68,2723
88.75,2721
88.82,2725
88.89,2747
88.96,2757
89.03,2686
89.1,2776
89.17,2943
89.24,3118
89.31,3195
89.38,3201
89.45,3048
89.52,3003
89.59,2906
89.66,2775
89.73,2717
89.8,2709
89.87,2665
89.94,2732
90.01,2797
90.08,2892
90.15,3051
90.22,3360
90.29,3247
90.36,3052
90.43,2952
90.5,3047
90.57,2961
90.64,3064
90.71,2869
90.78,2887
90.85,2828
90.92,2841
90.99,2774
91.06,2668
91.13,2823
91.2,3016
91.27,3035
91.34,2862
91.41,2791
91.48,2889
91.55,2657
91.62,2684
91.69,2693
91.76,2682
91.83,2767
91.9,2664
91.97,2793
92.04,3098
92.11,3351
92.18,3388
92.25,3431
92.32,3180
92.39,3027
92.46,2961
92.53,2746
92.6,2698
92.67,2690
92.74,2668
92.81,2667
92.88,2617
92.95,2801
93.02,2674
93.09,2761
93.16,2746
93.23,2825
93.3,3005
93.37,3040
93.44,2837
93.51,2736
93.58,2645
93.65,2700
93.72,2660
93.79,2635
93.86,2688
93.93,2736
94,2731
94.07,2900
94.14,2826
94.21,3048
94.28,2867
94.35,2815
94.42,2742
94.49,2827
94.56,2855
94.63,3083
94.7,2896
94.77,2698
94.84,2695
94.91,2702
94.98,2704
95.05,2715
95.12,2655
95.19,2719
95.26,2654
95.33,2785
95.4,2616
95.47,2691
95.54,2745
95.61,2752
95.68,2817
95.75,2850
95.82,2803
95.89,2905
95.96,2800
96.03,2889
96.1,2812
96.17,2648
96.24,2782
96.31,2751
96.38,2722
96.45,2830
96.52,2704
96.59,2696
96.66,2689
96.73,2721
96.8,2760
96.87,2728
96.94,2731
97.01,2737
97.08,2776
97.15,2828
97.22,2914
97.29,2832
97.36,2812
97.43,2878
97.5,2808
97.57,2786
97.64,2856
97.71,2745
97.78,2808
97.85,2864
97.92,2858
97.99,2735
98.06,2892
98.13,2932
98.2,2867
98.27,2926
98.34,2997
98.41,2858
98.48,2788
98.55,2812
98.62,2861
98.69,2862
98.76,2870
98.83,2866
98.9,2893
98.97,2914
99.04,3025
99.11,2906
99.18,2755
99.25,2877
99.32,2784
99.39,2802
99.46,2813
99.53,2798
99.6,2670
99.67,2767
99.74,2751
99.81,2664
99.88,2928
99.95,2846
100.02,2939
100.09,3011
100.16,2982
100.23,2803
100.3,2797
100.37,2634
100.44,2760
100.51,2699
100.58,2780
100.65,2785
100.72,2776
100.79,2735
100.86,2732
100.93,2788
101,2838
101.07,2820
101.14,2799
101.21,2906
101.28,2881
101.35,2883
101.42,2681
101.49,2758
101.56,2735
101.63,2749
101.7,2773
101.77,2805
101.84,2757
101.91,2764
101.98,2875
102.05,2836
102.12,2795
102.19,2748
102.26,2899
102.33,3098
102.4,2960
102.47,2981
102.54,3045
102.61,3117
102.68,2959
102.75,3091
102.82,2899
102.89,2923
102.96,2870
103.03,3099
103.1,2933
103.17,2921
103.24,2812
103.31,2817
103.38,2853
103.45,2791
103.52,2770
103.59,2754
103.66,2681
103.73,2797
103.8,2741
103.87,2813
103.94,2832
104.01,2915
104.08,2878
104.15,2716
104.22,2826
104.29,2831
104.36,2747
104.43,2769
104.5,2820
104.57,2803
104.64,3058
104.71,3089
104.78,3132
104.85,2950
104.92,2888
104.99,2898
105.06,2684
105.13,2757
105.2,2782
105.27,2759
105.34,2777
105.41,2795
105.48,2964
105.55,3087
105.62,3184
105.69,3064
105.76,3032
105.83,2983
105.9,2958
105.97,2928
106.04,2897
106.11,2765
106.18,2849
106.25,2850
106.32,2695
106.39,2815
106.46,2710
106.53,2769
106.6,2812
106.67,2811
106.74,2888
106.81,2871
106.88,2748
106.95,2840
107.02,2808
107.09,2936
107.16,2991
107.23,2852
107.3,2889
107.37,2911
107.44,2865
107.51,2765
107.58,2745
107.65,2737
107.72,2793
107.79,2913
107.86,2829
107.93,2903
108,2874
108.07,2770
108.14,2813
108.21,2799
108.28,2845
108.35,2899
108.42,3057
108.49,2955
108.56,2914
108.63,2914
108.7,2785
108.77,2744
108.84,2897
108.91,3080
108.98,3042
109.05,2931
109.12,3009
109.19,2851
109.26,2810
109.33,2861
109.4,3005
109.47,3010
109.54,2956
109.61,2902
109.68,2775
109.75,2914
109.82,2877
109.89,3024
109.96,3069
109.99,3009