File: data/xrd_icdd_PDF/00-073-0248 (PD3).csv
4.99911,0.00241
5.10074,0.05795
5.20237,0.08572
5.304,0.10504
5.40563,0.11832
5.50726,0.11712
5.60889,0.14247
5.71052,0.17266
5.81215,0.20405
5.91378,0.262
6.01541,0.2777
6.11704,0.326
6.21867,0.30064
6.3203,0.31392
6.42193,0.39361
6.52356,0.43104
6.62519,0.46485
6.72682,0.47934
6.82845,0.45157
6.93008,0.4902
7.03171,0.55057
7.13334,0.58559
7.23497,0.5385
7.3366,0.63992
7.43823,0.66527
7.53986,0.64475
7.64149,0.73893
7.74312,0.7341
7.84475,0.8005
7.94638,0.72927
8.04801,0.81741
8.14964,0.81499
8.25127,0.90072
8.3529,0.92486
8.45453,0.92366
8.55616,0.92245
8.65779,0.87415
8.75942,1.04198
8.86105,0.92124
8.96268,1.03957
9.06431,1.013
9.16594,0.96592
9.26757,1.04802
9.3692,1.03836
9.47083,1.09752
9.57246,1.09994
9.67409,0.99006
9.77572,1.07941
9.87735,1.10235
9.97898,1.02387
10.08061,1.06251
10.18224,1.04077
10.28387,1.05406
10.3855,1.05526
10.48713,1.07096
10.58876,1.12288
10.69039,1.12771
10.79202,0.99972
10.89365,1.03957
10.99528,1.03836
11.09691,1.08545
11.19854,1.03474
11.30017,1.10718
11.4018,1.05768
11.50343,1.01783
11.60506,1.12167
11.70669,1.06734
11.80832,1.05768
11.90995,1.02749
12.01158,1.14582
12.11321,1.013
12.21484,1.16996
12.31647,1.12167
12.4181,1.08183
12.51973,1.11563
12.62136,1.07458
12.72299,1.09269
12.82462,1.05164
12.92625,1.13374
13.02788,1.05406
13.12951,1.06009
13.23114,1.11805
13.33277,1.06613
13.4344,1.06251
13.53603,1.08303
13.63766,1.17238
13.73929,1.93666
13.84092,1.15306
13.94255,1.04198
14.04418,1.04923
14.14581,1.05285
14.24744,1.03836
14.34907,0.99248
14.4507,1.09028
14.55233,1.05406
14.65396,1.06975
14.75559,1.04802
14.85722,1.0444
14.95885,1.00214
15.06048,1.0444
15.16211,1.0287
15.26374,1.03353
15.36537,1.11925
15.467,1.01059
15.56863,0.95263
15.67026,1.04681
15.77189,1.02146
15.87352,1.05768
15.97515,0.99248
16.07678,1.0287
16.17841,0.914
16.28004,1.03957
16.38167,1.00214
16.4833,0.98403
16.58493,1.04681
16.68656,1.00697
16.78819,1.02991
16.88982,0.93815
16.99145,0.99127
17.09308,1.04681
17.19471,0.95143
17.29634,0.94901
17.39797,1.00334
17.4996,1.03111
17.60123,0.97557
17.70286,0.9961
17.80449,1.01421
17.90612,1.02025
18.00775,0.97437
18.10938,0.94418
18.21101,0.97316
18.31264,1.02508
18.41427,0.98403
18.5159,0.98886
18.61753,0.99127
18.71916,0.96109
18.82079,0.94297
18.92242,1.05406
19.02405,0.89709
19.12568,1.00817
19.22731,1.0287
19.32894,0.9635
19.43057,0.96109
19.5322,0.94297
19.63383,0.90555
19.73546,0.9635
19.83709,0.97316
19.93872,0.92728
20.04035,0.87415
20.14198,0.91883
20.24361,0.77998
20.34524,0.914
20.44687,0.98403
20.5485,0.92969
20.65013,0.95384
20.75176,0.89951
20.85339,0.90917
20.95502,0.92124
21.05665,0.88502
21.15828,0.90796
21.25991,0.97678
21.36154,0.95022
21.46317,0.84638
21.5648,0.92486
21.66643,0.97195
21.76806,0.89106
21.86969,0.84397
21.97132,0.88019
22.07295,0.90917
22.17458,0.96471
22.27621,0.95263
22.37784,0.91279
22.47947,0.8331
22.5811,0.8814
22.68273,0.88985
22.78436,0.88623
22.88599,0.78601
22.98762,0.86208
23.08925,0.92366
23.19088,0.83069
23.29251,0.8983
23.39414,0.85121
23.49577,0.8488
23.5974,0.95263
23.69903,0.77032
23.80066,0.86087
23.90229,0.85604
24.00392,0.83672
24.10555,0.86691
24.20718,1.08303
24.30881,1.29191
24.41044,0.81137
24.51207,0.85121
24.6137,0.81258
24.71533,0.81982
24.81696,0.78964
24.91859,0.81861
25.02022,0.81499
25.12185,0.88985
25.22348,0.82948
25.32511,0.78722
25.42674,0.84276
25.52837,0.88502
25.63,0.85846
25.73163,0.82465
25.83326,0.86691
25.93489,0.80895
26.03652,0.77273
26.13815,0.83552
26.23978,0.81741
26.34141,0.79809
26.44304,0.83069
26.54467,0.82224
26.6463,0.8488
26.74793,0.86812
26.84956,0.8331
26.95119,0.79809
27.05282,0.91158
27.15445,0.86208
27.25608,0.82344
27.35771,0.84155
27.45934,0.88381
27.56097,1.03353
27.6626,2.42686
27.76423,1.97892
27.86586,0.88502
27.96749,0.7836
28.06912,0.8162
28.17075,0.84155
28.27238,0.85001
28.37401,0.87295
28.47564,0.77756
28.57727,0.89226
28.6789,0.82224
28.78053,0.7836
28.88216,0.79567
28.98379,0.83672
29.08542,0.82948
29.18705,0.84155
29.28868,0.72202
29.39031,0.78843
29.49194,0.8331
29.59357,0.83552
29.6952,0.87778
29.79683,0.79326
29.89846,0.83793
30.00009,0.75341
30.10172,0.83672
30.20335,0.84276
30.30498,0.84759
30.40661,0.87174
30.50824,0.83793
30.60987,0.84759
30.7115,0.90434
30.81313,0.81499
30.91476,0.84518
31.01639,0.90434
31.11802,0.86087
31.21965,0.83672
31.32128,0.81137
31.42291,0.92728
31.52454,0.90192
31.62617,0.81137
31.7278,0.94056
31.82943,0.87898
31.93106,0.89226
32.03269,0.84276
32.13432,0.90796
32.23595,0.93211
32.33758,0.92728
32.43921,0.8983
32.54084,0.92486
32.64247,0.93332
32.7441,0.90072
32.84573,0.9961
32.94736,1.26293
33.04899,1.31727
33.15062,1.09873
33.25224,1.02991
33.35387,0.97437
33.4555,0.90434
33.55713,0.94539
33.65876,0.97437
33.76039,0.96712
33.86202,0.99127
33.96365,0.99731
34.06528,1.03353
34.16691,1.0118
34.26854,1.03594
34.37017,1.08183
34.4718,1.04802
34.57343,1.1096
34.67506,1.10597
34.77669,1.15427
34.87832,1.2581
34.97995,1.34141
35.08158,2.31578
35.18321,12.35889
35.28484,13.88382
35.38647,3.28653
35.4881,1.67224
35.58973,1.41144
35.69136,1.16514
35.79299,1.34262
35.89462,2.38581
35.99625,2.24092
36.09788,1.4199
36.19951,1.3716
36.30114,1.28829
36.40277,1.13495
36.5044,1.07217
36.60603,1.10839
36.70766,1.14219
36.80929,1.077
36.91092,1.13495
37.01255,1.22309
37.11418,1.2895
37.21581,1.09148
37.31744,1.13012
37.41907,1.25931
37.5207,1.27501
37.62233,1.18687
37.72396,1.16031
37.82559,1.28587
37.92722,2.43411
38.02885,2.92793
38.13048,1.66258
38.23211,1.13012
38.33374,1.11563
38.43537,1.02991
38.537,1.17117
38.63863,1.11322
38.74026,1.23033
38.84189,1.22309
38.94352,1.12529
39.04515,1.03957
39.14678,1.06854
39.24841,1.05526
39.35004,1.09873
39.45167,1.08183
39.5533,1.09511
39.65493,1.09631
39.75656,1.36315
39.85819,1.35228
39.95982,1.48268
40.06145,1.39213
40.16308,1.59859
40.26471,1.4537
40.36634,1.4211
40.46797,1.40541
40.5696,1.55512
40.67123,1.85576
40.77286,2.27473
40.87449,2.66472
40.97612,3.70549
41.07775,10.66129
41.17938,100
41.28101,53.91498
41.38264,9.88856
41.48427,3.2503
41.5859,2.14192
41.68753,1.8292
41.78916,1.89561
41.89079,2.38702
41.99242,6.16858
42.09405,20.20453
42.19568,11.92785
42.29731,2.08758
42.39894,1.63481
42.50057,1.42955
42.6022,1.40782
42.70383,1.34141
42.80546,1.37522
42.90709,1.51769
43.00872,1.5346
43.11035,1.31123
43.21198,1.32572
43.31361,1.35711
43.41524,1.44284
43.51687,1.55512
43.6185,1.28225
43.72013,1.25207
43.82176,1.22671
43.92339,1.22792
44.02502,1.18445
44.12665,1.16393
44.22828,1.17479
44.32991,1.25448
44.43154,1.18566
44.53317,1.16996
44.6348,1.18566
44.73643,1.16393
44.83806,1.22068
44.93969,1.18325
45.04132,1.176
45.14295,1.19894
45.24458,1.15427
45.34621,1.21585
45.44784,1.12408
45.54947,1.14702
45.6511,1.19411
45.75273,1.15185
45.85436,1.12771
45.95599,1.05526
46.05762,1.17842
46.15925,1.11442
46.26088,1.18808
46.36251,1.15789
46.46414,1.15306
46.56577,1.07579
46.6674,1.07337
46.76903,1.20136
46.87066,1.08424
46.97229,1.09511
47.07392,1.18083
47.17555,1.2086
47.27718,1.0782
47.37881,1.1434
47.48044,1.13374
47.58207,1.04802
47.6837,1.16151
47.78533,1.12771
47.88696,1.17117
47.98859,1.07096
48.09022,1.16755
48.19185,1.16031
48.29348,1.12408
48.39511,1.12167
48.49674,1.13978
48.59837,1.11805
48.7,1.11684
48.80163,1.19049
48.90326,1.10477
49.00489,1.08424
49.10652,1.11442
49.20815,1.18325
49.30978,1.05526
49.41141,1.18928
49.51304,1.21343
49.61467,1.07458
49.7163,1.1917
49.81793,1.13495
49.91956,1.12529
50.02119,1.10235
50.12282,1.20136
50.22445,1.26776
50.32608,2.09121
50.42771,1.68794
50.52934,1.76038
50.63097,1.06009
50.7326,1.11322
50.83423,1.08424
50.93586,1.08786
51.03749,1.13616
51.13912,1.06975
51.24075,1.13616
51.34238,1.06371
51.44401,1.05526
51.54564,1.03957
51.64727,0.99006
51.7489,1.06854
51.85053,1.16031
51.95216,1.08786
52.05379,1.12408
52.15542,0.99972
52.25705,0.99369
52.35868,1.013
52.46031,0.95867
52.56194,0.97316
52.66357,1.0456
52.7652,1.04681
52.86683,0.96592
52.96846,0.9635
53.07009,0.98886
53.17172,0.9961
53.27335,0.92728
53.37498,1.03957
53.47661,1.01783
53.57824,1.0118
53.67987,1.05043
53.7815,1.1591
53.88313,1.35832
53.98476,1.30882
54.08639,1.21705
54.18802,1.07941
54.28965,1.08665
54.39128,0.99731
54.49291,0.96954
54.59454,1.03836
54.69617,0.9792
54.7978,0.97678
54.89943,0.97437
55.00106,1.00455
55.10269,0.9961
55.20432,0.95022
55.30595,0.99489
55.40758,0.99851
55.50921,1.01059
55.61084,1.08545
55.71247,1.2569
55.8141,1.47302
55.91573,4.41423
56.01736,16.1658
56.11899,7.28662
56.22062,3.00762
56.32225,1.27139
56.42388,1.12046
56.52551,1.06492
56.62714,0.95143
56.72877,1.01904
56.8304,0.99369
56.93203,0.95143
57.03366,0.99127
57.13529,1.21102
57.23692,1.16876
57.33855,1.23758
57.44018,0.90313
57.54181,0.94539
57.64344,0.87536
57.74507,0.9309
57.8467,0.97557
57.94833,0.9309
58.04996,0.92607
58.15159,0.9478
58.25322,0.97316
58.35485,0.87536
58.45648,0.91883
58.55811,0.84276
58.65974,0.85966
58.76137,0.90917
58.863,0.87174
58.96463,0.95022
59.06626,0.85121
59.16789,0.82224
59.26952,0.89468
59.37115,0.84276
59.47278,0.9635
59.57441,0.90434
59.67604,0.82344
59.77767,0.91641
59.8793,0.87898
59.98093,0.86329
60.08256,0.83189
60.18419,0.89951
60.28582,0.89589
60.38745,0.87778
60.48908,0.87778
60.59071,0.87174
60.69234,0.86449
60.79397,0.85725
60.8956,0.90675
60.99723,0.93573
61.09886,0.8814
61.20049,0.8814
61.30212,0.83672
61.40375,0.87536
61.50538,0.85966
61.60701,0.92607
61.70864,0.8657
61.81027,0.89106
61.9119,0.94297
62.01353,0.85363
62.11516,0.89709
62.21679,0.99127
62.31842,0.91038
62.42005,0.92124
62.52168,0.96712
62.62331,0.90072
62.72494,0.86329
62.82657,1.03353
62.9282,1.19894
63.02983,1.52132
63.13146,4.37077
63.23309,18.04571
63.33472,5.01914
63.43635,6.18548
63.53798,1.24362
63.63961,0.99851
63.74124,0.914
63.84287,0.92366
63.9445,0.85363
64.04613,0.82706
64.14776,0.87295
64.24939,0.82586
64.35102,0.84518
64.45265,0.80654
64.55428,0.86932
64.65591,0.83914
64.75754,0.81741
64.85917,0.81741
64.9608,0.9466
65.06243,1.04681
65.16406,0.94056
65.26569,0.90796
65.36732,0.84276
65.46895,0.80775
65.57058,0.80533
65.67221,0.73168
65.77384,0.79929
65.87547,0.83793
65.9771,0.81016
66.07873,0.77394
66.18036,0.7353
66.28199,0.76428
66.38362,0.81378
66.48525,0.82827
66.58688,0.78239
66.68851,0.7679
66.79014,0.75341
66.89177,0.70874
66.9934,0.6701
67.09503,0.72202
67.19666,0.7679
67.29829,0.74979
67.39992,0.79205
67.50155,0.73772
67.60318,0.77998
67.70481,0.76187
67.80644,0.74979
67.90807,0.73893
68.0097,0.76066
68.11133,0.73893
68.21296,0.72685
68.31459,0.6858
68.41622,0.64596
68.51785,0.72444
68.61948,0.70512
68.72111,0.71961
68.82274,0.67614
68.92437,0.77635
69.026,0.73893
69.12763,0.65682
69.22926,0.63871
69.33089,0.75462
69.43252,0.72564
69.53415,0.70995
69.63578,0.67735
69.73741,0.77032
69.83904,0.66165
69.94067,0.70029
70.0423,0.67735
70.14393,0.69304
70.24556,0.71719
70.34719,0.98523
70.44882,0.7184
70.55045,0.84397
70.65208,0.68701
70.75371,0.70633
70.85534,0.67614
70.95697,0.63267
71.0586,0.64837
71.16023,0.61215
71.26186,0.64233
71.36349,0.66407
71.46512,0.60853
71.56675,0.66044
71.66838,0.60128
71.77001,0.62422
71.87164,0.6375
71.97327,0.60732
72.0749,0.66648
72.17653,0.6363
72.27816,0.59525
72.37979,0.63871
72.48142,0.59887
72.58305,0.63992
72.68468,0.63267
72.78631,0.6049
72.88794,0.58921
72.98957,0.58076
73.0912,0.57351
73.19283,0.58559
73.29446,0.66165
73.39609,0.59162
73.49772,0.60853
73.59935,0.57593
73.70098,0.65079
73.80261,0.62784
73.90424,0.56385
74.00587,0.62905
74.1075,0.59283
74.20913,0.60611
74.31076,0.68821
74.41239,0.92366
74.51402,1.6336
74.61565,0.7679
74.71728,1.24362
74.81891,0.64113
74.92054,0.70029
75.02217,0.62905
75.1238,0.66407
75.22543,0.57713
75.32706,0.62422
75.42869,0.60007
75.53032,0.57834
75.63195,0.62543
75.73358,0.64837
75.83521,0.77394
75.93684,0.71598
76.03847,0.83189
76.1401,1.33417
76.24173,5.98143
76.34336,4.3104
76.44499,2.66834
76.54662,3.71998
76.64825,0.91762
76.74988,0.6689
76.85151,0.66044
76.95314,0.59042
77.05477,0.5723
77.1564,0.57593
77.25803,0.57351
77.35966,0.54695
77.46129,0.56265
77.56292,0.56627
77.66455,0.62664
77.76618,0.58679
77.86781,0.64596
77.96944,0.69063
78.07107,0.75583
78.1727,1.48389
78.27433,6.91716
78.37596,2.1057
78.47759,2.87963
78.57922,2.11052
78.68085,1.00576
78.78248,2.35925
78.88411,8.66185
78.98574,1.78694
79.08737,3.74292
79.189,1.601
79.29063,0.66407
79.39226,0.5711
79.49389,0.58559
79.59552,0.48417
79.69715,0.50711
79.79878,0.53125
79.90041,0.47934
80.00204,0.46847
80.10367,0.47451
80.2053,0.46605
80.30693,0.46605
80.40856,0.46847
80.51019,0.44553
80.61182,0.42862
80.71345,0.40448
80.81508,0.4238
80.91671,0.42138
81.01834,0.47571
81.11997,0.44794
81.2216,0.3912
81.32323,0.35618
81.42486,0.39844
81.52649,0.41051
81.62812,0.44432
81.72975,0.3924
81.83138,0.36826
81.93301,0.35739
82.03464,0.4081
82.13627,0.38395
82.2379,0.4238
82.33953,0.41172
82.44116,0.34894
82.54279,0.40568
82.64442,0.36343
82.74605,0.34169
82.84768,0.33445
82.94931,0.34049
83.05094,0.33928
83.15257,0.30909
83.2542,0.36463
83.35583,0.32479
83.45746,0.28495
83.55909,0.32962
83.66072,0.2934
83.76235,0.34169
83.86398,0.28495
83.96561,0.28374
84.06724,0.32117
84.16887,0.29823
84.2705,0.33928
84.37213,0.31513
84.47376,0.3103
84.57539,0.262
84.67702,0.29581
84.77865,0.2946
84.88028,0.33566
84.98191,0.31996
85.08354,0.2608
85.18517,0.30185
85.2868,0.28857
85.38843,0.23061
85.49006,0.28495
85.59169,0.26804
85.69332,0.29581
85.79495,0.25114
85.89658,0.24389
85.99821,0.27046
86.09984,0.2451
86.20147,0.22095
86.3031,0.25959
86.40473,0.26442
86.50636,0.27166
86.60799,0.21612
86.70962,0.22337
86.81125,0.27287
86.91288,0.21612
87.01451,0.22337
87.11614,0.25717
87.21777,0.23423
87.3194,0.23061
87.42103,0.18473
87.52266,0.23544
87.62429,0.2282
87.72592,0.17628
87.82755,0.1956
87.92918,0.21492
88.03081,0.18352
88.13244,0.18232
88.23407,0.21371
88.3357,0.19681
88.43733,0.19318
88.53896,0.16541
88.64059,0.16904
88.74222,0.17266
88.84385,0.18835
88.94548,0.19077
89.04711,0.18352
89.14874,0.20163
89.25037,0.20163
89.352,0.42138
89.45363,0.94539
89.55526,0.26563
89.65689,0.3429
89.75851,0.46847
89.86014,0.1956
89.96177,0.17869
90.01259,0.15575