File: data/xrd_icdd_PDF/00-064-0303 (PD3).csv
5,2520
5.08,2340
5.16,2400
5.24,2508
5.32,2277
5.4,2292
5.48,2091
5.56,2187
5.64,2280
5.72,2067
5.8,2046
5.88,1929
5.96,1830
6.04,2076
6.12,1932
6.2,1902
6.28,1875
6.36,1878
6.44,1800
6.52,1686
6.6,1728
6.68,1752
6.76,1863
6.84,1728
6.92,1692
7,1698
7.08,1605
7.16,1587
7.24,1593
7.32,1554
7.4,1494
7.48,1554
7.56,1470
7.64,1506
7.72,1485
7.8,1434
7.88,1479
7.96,1389
8.04,1425
8.12,1338
8.2,1443
8.28,1317
8.36,1473
8.44,1368
8.52,1434
8.6,1380
8.68,1395
8.76,1389
8.84,1167
8.92,1215
9,1107
9.08,1308
9.16,1221
9.24,1170
9.32,1128
9.4,1137
9.48,1167
9.56,1173
9.64,1110
9.72,1191
9.8,1149
9.88,1107
9.96,1191
10.04,1134
10.12,1110
10.2,1041
10.28,972
10.36,1167
10.44,1041
10.52,1173
10.6,1167
10.68,1017
10.76,1092
10.84,1008
10.92,1035
11,987
11.08,972
11.16,981
11.24,924
11.32,1074
11.4,984
11.48,927
11.56,924
11.64,978
11.72,1056
11.8,990
11.88,966
11.96,906
12.04,900
12.12,858
12.2,813
12.28,861
12.36,882
12.44,798
12.52,759
12.6,828
12.68,810
12.76,822
12.84,753
12.92,840
13,720
13.08,795
13.16,804
13.24,687
13.32,729
13.4,780
13.48,729
13.56,744
13.64,723
13.72,699
13.8,732
13.88,687
13.96,681
14.04,690
14.12,675
14.2,738
14.28,729
14.36,645
14.44,750
14.52,720
14.6,699
14.68,621
14.76,693
14.84,654
14.92,651
15,708
15.08,786
15.16,849
15.24,1284
15.32,2202
15.4,1668
15.48,744
15.56,639
15.64,588
15.72,594
15.8,621
15.88,600
15.96,591
16.04,567
16.12,513
16.2,537
16.28,606
16.36,615
16.44,564
16.52,507
16.6,555
16.68,567
16.76,510
16.84,471
16.92,501
17,573
17.08,483
17.16,474
17.24,552
17.32,513
17.4,525
17.48,444
17.56,492
17.64,471
17.72,513
17.8,441
17.88,471
17.96,510
18.04,576
18.12,669
18.2,876
18.28,1497
18.36,930
18.44,570
18.52,483
18.6,498
18.68,408
18.76,435
18.84,408
18.92,390
19,540
19.08,441
19.16,420
19.24,402
19.32,450
19.4,438
19.48,399
19.56,444
19.64,378
19.72,408
19.8,366
19.88,432
19.96,420
20.04,450
20.12,423
20.2,408
20.28,393
20.36,369
20.44,468
20.52,387
20.6,417
20.68,420
20.76,444
20.84,420
20.92,381
21,438
21.08,444
21.16,486
21.24,702
21.32,612
21.4,483
21.48,384
21.56,375
21.64,348
21.72,393
21.8,303
21.88,369
21.96,360
22.04,372
22.12,387
22.2,363
22.28,372
22.36,411
22.44,450
22.52,453
22.6,426
22.68,468
22.76,648
22.84,927
22.92,1839
23,2811
23.08,1305
23.16,714
23.24,609
23.32,405
23.4,384
23.48,342
23.56,366
23.64,423
23.72,405
23.8,408
23.88,318
23.96,315
24.04,339
24.12,333
24.2,339
24.28,423
24.36,285
24.44,387
24.52,315
24.6,318
24.68,342
24.76,318
24.84,351
24.92,333
25,396
25.08,315
25.16,318
25.24,330
25.32,252
25.4,324
25.48,393
25.56,351
25.64,327
25.72,357
25.8,294
25.88,303
25.96,339
26.04,297
26.12,375
26.2,399
26.28,486
26.36,633
26.44,657
26.52,486
26.6,657
26.68,984
26.76,1011
26.84,1440
26.92,3336
27,7923
27.08,5445
27.16,1776
27.24,756
27.32,570
27.4,492
27.48,477
27.56,408
27.64,420
27.72,438
27.8,396
27.88,456
27.96,435
28.04,531
28.12,576
28.2,600
28.28,648
28.36,861
28.44,1032
28.52,876
28.6,777
28.68,753
28.76,810
28.84,963
28.92,1317
29,1743
29.08,3363
29.16,7674
29.24,22575
29.32,40074
29.4,23994
29.48,7437
29.56,3162
29.64,1986
29.72,1731
29.8,1620
29.88,1695
29.96,2433
30.04,4791
30.12,11424
30.2,31488
30.28,39777
30.36,18492
30.44,5517
30.52,2976
30.6,2640
30.68,3183
30.76,5088
30.84,11166
30.92,29217
31,43119
31.08,24132
31.16,7119
31.24,2298
31.32,1479
31.4,1227
31.48,972
31.56,969
31.64,879
31.72,1023
31.8,1356
31.88,1860
31.96,3441
32.04,7974
32.12,24651
32.2,27417
32.28,12441
32.36,4092
32.44,2997
32.52,4506
32.6,7653
32.68,13929
32.76,37992
32.84,40791
32.92,17934
33,5043
33.08,2625
33.16,2007
33.24,1836
33.32,1974
33.4,2676
33.48,4812
33.56,10761
33.64,29334
33.72,41712
33.8,25668
33.88,8397
33.96,3387
34.04,1767
34.12,1137
34.2,933
34.28,678
34.36,564
34.44,576
34.52,432
34.6,459
34.68,420
34.76,357
34.84,393
34.92,441
35,525
35.08,600
35.16,1275
35.24,1323
35.32,816
35.4,474
35.48,366
35.56,318
35.64,435
35.72,381
35.8,303
35.88,318
35.96,324
36.04,291
36.12,345
36.2,267
36.28,354
36.36,300
36.44,297
36.52,267
36.6,323
36.68,366
36.76,324
36.84,417
36.92,621
37,1446
37.08,1374
37.16,930
37.24,408
37.32,282
37.4,231
37.48,231
37.56,201
37.64,234
37.72,282
37.8,252
37.88,210
37.96,207
38.04,297
38.12,345
38.2,282
38.28,270
38.36,264
38.44,201
38.52,192
38.6,228
38.68,243
38.76,249
38.84,180
38.92,210
39,216
39.08,234
39.16,249
39.24,318
39.32,273
39.4,324
39.48,348
39.56,648
39.64,576
39.72,690
39.8,846
39.88,1332
39.96,3426
40.04,5955
40.12,5478
40.2,2931
40.28,1161
40.36,584
40.44,464
40.52,425
40.6,363
40.68,351
40.76,321
40.84,405
40.92,430
41,388
41.08,565
41.16,693
41.24,1110
41.32,2427
41.4,3057
41.48,2232
41.56,1068
41.64,507
41.72,459
41.8,420
41.88,504
41.96,627
42.04,969
42.12,1395
42.2,1629
42.28,2055
42.36,4278
42.44,8616
42.52,6897
42.6,3930
42.68,1380
42.76,864
42.84,675
42.92,759
43,1038
43.08,1230
43.16,1779
43.24,3090
43.32,3297
43.4,3507
43.48,2886
43.56,2415
43.64,2280
43.72,3753
43.8,9867
43.88,20565
43.96,17358
44.04,10851
44.12,4173
44.2,1602
44.28,990
44.36,660
44.44,633
44.52,579
44.6,492
44.68,408
44.76,369
44.84,357
44.92,294
45,273
45.08,336
45.16,315
45.24,390
45.32,366
45.4,402
45.48,795
45.56,822
45.64,666
45.72,933
45.8,765
45.88,642
45.96,405
46.04,303
46.12,285
46.2,252
46.28,309
46.36,252
46.44,282
46.52,267
46.6,306
46.68,396
46.76,365
46.84,380
46.92,391
47,381
47.08,378
47.16,621
47.24,702
47.32,675
47.4,590
47.48,571
47.56,467
47.64,540
47.72,609
47.8,1107
47.88,978
47.96,789
48.04,549
48.12,507
48.2,486
48.28,462
48.36,564
48.44,537
48.52,537
48.6,621
48.68,735
48.76,900
48.84,1260
48.92,2250
49,4083
49.08,11388
49.16,23283
49.24,19134
49.32,13071
49.4,5388
49.48,2112
49.56,1248
49.64,990
49.72,717
49.8,663
49.88,648
49.96,669
50.04,606
50.12,657
50.2,915
50.28,1308
50.36,1473
50.44,1320
50.52,1158
50.6,1065
50.68,981
50.76,1179
50.84,1857
50.92,1692
51,1296
51.08,852
51.16,510
51.24,468
51.32,504
51.4,399
51.48,399
51.56,345
51.64,372
51.72,357
51.8,378
51.88,351
51.96,378
52.04,465
52.12,594
52.2,984
52.28,1005
52.36,900
52.44,813
52.52,687
52.6,939
52.68,1698
52.76,2496
52.84,2316
52.92,1971
53,1539
53.08,1662
53.16,2823
53.24,6918
53.32,14241
53.4,15732
53.48,13461
53.56,8640
53.64,4410
53.72,2055
53.8,1347
53.88,987
53.96,1005
54.04,1005
54.12,1410
54.2,1959
54.28,1512
54.36,1683
54.44,1323
54.52,1140
54.6,966
54.68,843
54.76,708
54.84,528
54.92,666
55,732
55.08,750
55.16,831
55.24,903
55.32,1395
55.4,1830
55.48,3162
55.56,7887
55.64,17361
55.72,18495
55.8,13116
55.88,8715
55.96,3417
56.04,1656
56.12,1221
56.2,1023
56.28,882
56.36,774
56.44,837
56.52,879
56.6,924
56.68,1137
56.76,1482
56.84,2427
56.92,4695
57,8442
57.08,8325
57.16,6513
57.24,5391
57.32,4875
57.4,9615
57.48,17160
57.56,16392
57.64,11862
57.72,7455
57.8,3225
57.88,1692
57.96,1242
58.04,1278
58.12,1692
58.2,1917
58.28,1512
58.36,1914
58.44,1824
58.52,1461
58.6,1107
58.68,1032
58.76,1041
58.84,915
58.92,837
59,681
59.08,618
59.16,768
59.24,1407
59.32,1416
59.4,1098
59.48,999
59.56,630
59.64,558
59.72,516
59.8,489
59.88,498
59.96,417
60.04,441
60.12,435
60.2,504
60.28,471
60.36,465
60.44,564
60.52,597
60.6,873
60.68,1437
60.76,2277
60.84,3606
60.92,6240
61,7035
61.08,5130
61.16,3852
61.24,2103
61.32,1062
61.4,789
61.48,765
61.56,597
61.64,597
61.72,708
61.8,777
61.88,1293
61.96,1671
62.04,1407
62.12,1497
62.2,1314
62.28,1419
62.36,1848
62.44,4011
62.52,8793
62.6,8781
62.68,7062
62.76,6939
62.84,6942
62.92,10044
63,11433
63.08,8583
63.16,6792
63.24,4422
63.32,3114
63.4,2919
63.48,3117
63.56,4647
63.64,6372
63.72,6345
63.8,5055
63.88,3972
63.96,2436
64.04,1479
64.12,1176
64.2,897
64.28,987
64.36,1107
64.44,2037
64.52,2754
64.6,3525
64.68,3144
64.76,2265
64.84,1563
64.92,843
65,525
65.08,402
65.16,360
65.24,345
65.32,315
65.4,333
65.48,306
65.56,363
65.64,396
65.72,354
65.8,384
65.88,501
65.96,468
66.04,1020
66.12,1929
66.2,2142
66.28,1821
66.36,1491
66.44,999
66.52,660
66.6,690
66.68,828
66.76,783
66.84,720
66.92,774
67,906
67.08,1236
67.16,1596
67.24,2829
67.32,2235
67.4,1653
67.48,1416
67.56,798
67.64,465
67.72,411
67.8,348
67.88,393
67.96,381
68.04,402
68.12,456
68.2,465
68.28,525
68.36,540
68.44,561
68.52,639
68.6,888
68.68,1950
68.76,2340
68.84,1545
68.92,1611
69,1179
69.08,960
69.16,930
69.24,999
69.32,1041
69.4,798
69.48,711
69.56,588
69.64,465
69.72,384
69.8,360
69.88,270
69.96,345
70.04,378
70.12,459
70.2,513
70.28,465
70.36,405
70.44,387
70.52,261
70.6,309
70.68,465
70.76,477
70.84,492
70.92,453
71,594
71.08,834
71.16,942
71.24,885
71.32,1008
71.4,1158
71.48,1479
71.56,1962
71.64,1581
71.72,1233
71.8,1083
71.88,882
71.96,528
72.04,435
72.12,396
72.2,420
72.28,504
72.36,678
72.44,819
72.52,714
72.6,696
72.68,972
72.76,1614
72.84,2181
72.92,2490
73,2037
73.08,1620
73.16,1437
73.24,1044
73.32,1038
73.4,1740
73.48,2418
73.56,1998
73.64,1755
73.72,1524
73.8,1008
73.88,678
73.96,558
74.04,525
74.12,444
74.2,453
74.28,519
74.36,495
74.44,504
74.52,525
74.6,456
74.68,420
74.76,399
74.84,372
74.92,429
75,600
75.08,888
75.16,867
75.24,711
75.32,669
75.4,627
75.48,492
75.56,462
75.64,315
75.72,336
75.8,333
75.88,345
75.96,234
76.04,351
76.12,345
76.2,360
76.28,477
76.36,669
76.44,801
76.52,726
76.6,771
76.68,708
76.76,606
76.84,465
76.92,438
77,366
77.08,378
77.16,342
77.24,324
77.32,390
77.4,348
77.48,378
77.56,330
77.64,453
77.72,384
77.8,513
77.88,558
77.96,636
78.04,975
78.12,1734
78.2,2958
78.28,3456
78.36,2598
78.44,2367
78.52,2013
78.6,1509
78.68,1374
78.76,2232
78.84,3966
78.92,4098
79,2922
79.08,2946
79.16,2304
79.24,1470
79.32,978
79.4,1032
79.48,1023
79.56,1095
79.64,1056
79.72,1029
79.8,744
79.88,603
79.96,603
80.04,522
80.12,594
80.2,624
80.28,561
80.36,627
80.44,840
80.52,1140
80.6,2139
80.68,3495
80.76,4332
80.84,3723
80.92,2946
81,2718
81.08,1947
81.16,1209
81.24,924
81.32,765
81.4,717
81.48,891
81.56,942
81.64,1422
81.72,2499
81.8,3867
81.88,4659
81.96,4356
82.04,4116
82.12,4653
82.2,4305
82.28,4290
82.36,3516
82.44,2481
82.52,2148
82.6,1665
82.68,1023
82.76,774
82.84,789
82.92,735
83,669
83.08,687
83.16,732
83.24,822
83.32,810
83.4,990
83.48,1098
83.56,1302
83.64,1332
83.72,1458
83.8,1515
83.88,1293
83.96,1011
84.04,774
84.12,750
84.2,552
84.28,429
84.36,369
84.44,348
84.52,336
84.6,384
84.68,381
84.76,417
84.84,444
84.92,672
85,975
85.08,1038
85.16,1101
85.24,969
85.32,990
85.4,831
85.48,636
85.56,588
85.64,432
85.72,456
85.8,420
85.88,495
85.96,654
86.04,855
86.12,1260
86.2,1497
86.28,1488
86.36,1452
86.44,1416
86.52,1335
86.6,1182
86.68,990
86.76,1005
86.84,1344
86.92,1872
87,1932
87.08,1647
87.16,1500
87.24,1587
87.32,1584
87.4,1329
87.48,1302
87.56,1386
87.64,1431
87.72,1356
87.8,1611
87.88,1875
87.96,2565
88.04,2745
88.12,3030
88.2,3270
88.28,3507
88.36,3852
88.44,4986
88.52,5016
88.6,3981
88.68,3222
88.76,3042
88.84,2589
88.92,2238
89,1605
89.08,1365
89.16,1368
89.24,1533
89.32,1641
89.4,1701
89.48,1581
89.56,1713
89.64,1854
89.72,2286
89.8,2679
89.88,3201
89.96,3141
90.04,2916
90.12,2205
90.2,1917
90.28,1776
90.36,1194
90.44,813
90.52,756
90.6,747
90.68,873
90.76,1107
90.84,1488
90.92,1785
91,1491
91.08,1296
91.16,1293
91.24,1131
91.32,918
91.4,750
91.48,768
91.56,612
91.64,714
91.72,870
91.8,1125
91.88,1281
91.96,1812
92.04,2268
92.12,2874
92.2,3432
92.28,3489
92.36,3372
92.44,3204
92.52,3258
92.6,2484
92.68,2343
92.76,2283
92.84,1650
92.92,1323
93,1194
93.08,1230
93.16,1248
93.24,1368
93.32,1173
93.4,975
93.48,936
93.56,999
93.64,882
93.72,939
93.8,1119
93.88,1287
93.96,1335
94.04,1650
94.12,1860
94.2,1824
94.28,1812
94.36,1716
94.44,1440
94.52,1416
94.6,1395
94.68,1551
94.76,1686
94.84,2181
94.92,2238
95,2148
95.08,2025
95.16,1866
95.24,1614
95.32,1209
95.4,1089
95.48,867
95.56,792
95.64,627
95.72,594
95.8,570
95.88,597
95.96,675
96.04,864
96.12,1347
96.2,1656
96.28,1317
96.36,1110
96.44,966
96.52,1038
96.6,855
96.68,702
96.76,504
96.84,381
96.92,312
97,459
97.08,348
97.16,363
97.24,333
97.32,333
97.4,294
97.48,345
97.56,354
97.64,303
97.72,375
97.8,330
97.88,354
97.96,426
98.04,387
98.12,432
98.2,603
98.28,651
98.36,906
98.44,1047
98.52,1260
98.6,1845
98.68,2139
98.76,2226
98.84,2100
98.92,1740
99,1560
99.08,1359
99.16,1539
99.24,1218
99.32,1095
99.4,1017
99.48,1134
99.56,1452
99.64,1749
99.72,1512
99.8,1179
99.88,1050
99.96,1314
100,1185