File: data/xrd_icdd_PDF/00-068-0308 (PD3).csv
8.60846,49.784
8.66846,50.48622
8.72846,62.65907
8.78846,54.98903
8.84846,46.23592
8.90846,63.02245
8.96846,58.18122
9.02846,52.05649
9.08846,58.10189
9.14846,50.40754
9.20846,56.57203
9.26846,55.59517
9.32846,44.67163
9.38846,52.4837
9.44846,61.02867
9.50846,51.41008
9.56846,61.28313
9.62846,48.01548
9.68846,51.5001
9.74846,54.07539
9.80846,54.69163
9.86846,60.60864
9.92846,59.66587
9.98846,43.11647
10.04846,51.9677
10.10846,52.03455
10.16846,54.45286
10.22846,50.88693
10.28846,54.52615
10.34846,57.30568
10.40846,60.57108
10.46846,53.39764
10.52846,50.40489
10.58846,56.49446
10.64846,58.77266
10.70846,63.59931
10.76846,70.98761
10.82846,75.12839
10.88846,91.79879
10.94846,60.79219
11.00846,56.42512
11.06846,58.25421
11.12846,52.90053
11.18846,62.14613
11.24846,63.74482
11.30846,52.48315
11.36846,64.66661
11.42846,57.6516
11.48846,51.99144
11.54846,55.73539
11.60846,58.07018
11.66846,56.44766
11.72846,53.31676
11.78846,50.23534
11.84846,58.91963
11.90846,54.52611
11.96846,54.61629
12.02846,54.26377
12.08846,57.18227
12.14846,57.16088
12.20846,58.88728
12.26846,60.75349
12.32846,64.95128
12.38846,53.90946
12.44846,60.8906
12.50846,63.92875
12.56846,57.23882
12.62846,51.93177
12.68846,55.75182
12.74846,58.38434
12.80846,44.56076
12.86846,57.64775
12.92846,60.12339
12.98846,66.08083
13.04846,50.21268
13.10846,51.76984
13.16846,55.26059
13.22846,54.99643
13.28846,61.56421
13.34846,61.65266
13.40846,59.81031
13.46846,62.8576
13.52846,57.52741
13.58846,64.21546
13.64846,56.39296
13.70846,59.94496
13.76846,54.84168
13.82846,54.12571
13.88846,55.24491
13.94846,51.04001
14.00846,56.94008
14.06846,57.83484
14.12846,46.23234
14.18846,39.95844
14.24846,58.09692
14.30846,73.03441
14.36846,50.84473
14.42846,50.66619
14.48846,58.26075
14.54846,64.08138
14.60846,64.67032
14.66846,63.95222
14.72846,68.17114
14.78846,60.43586
14.84846,57.62981
14.90846,53.05755
14.96846,56.48372
15.02846,64.65246
15.08846,66.01424
15.14846,64.77496
15.20846,59.08765
15.26846,59.20823
15.32846,67.29037
15.38846,67.92604
15.44846,56.71511
15.50846,56.36472
15.56846,63.66131
15.62846,62.56176
15.68846,70.08356
15.74846,55.48794
15.80846,59.39445
15.86846,53.29819
15.92846,56.33798
15.98846,62.2551
16.04846,57.34352
16.10846,58.83781
16.16846,50.99433
16.22846,59.56203
16.28846,59.87908
16.34846,63.61254
16.40846,60.34412
16.46846,61.12172
16.52846,57.13059
16.58846,57.85575
16.64846,55.84368
16.70846,58.81519
16.76846,61.45969
16.82846,56.38763
16.88846,56.99666
16.94846,65.06331
17.00846,62.92855
17.06846,54.08194
17.12846,56.88783
17.18846,62.32314
17.24846,59.92828
17.30846,58.71782
17.36846,58.57561
17.42846,59.73584
17.48846,62.17842
17.54846,62.75567
17.60846,56.91159
17.66846,60.4244
17.72846,45.07345
17.78846,65.7346
17.84846,53.62967
17.90846,53.96113
17.96846,50.99657
18.02846,67.64358
18.08846,58.41624
18.14846,53.69495
18.20846,52.18221
18.26846,71.70895
18.32846,55.58806
18.38846,62.66544
18.44846,45.34882
18.50846,63.74193
18.56846,52.45044
18.62846,66.47531
18.68846,59.41519
18.74846,63.88191
18.80846,62.98627
18.86846,58.41199
18.92846,62.2843
18.98846,49.45904
19.04846,58.92114
19.10846,49.6629
19.16846,69.67289
19.22846,62.4125
19.28846,59.87546
19.34846,70.40477
19.40846,54.91771
19.46846,61.39249
19.52846,54.76043
19.58846,69.15896
19.64846,53.2326
19.70846,60.98828
19.76846,54.44426
19.82846,72.92278
19.88846,53.23479
19.94846,66.84161
20.00846,56.91416
20.06846,59.53958
20.12846,64.45004
20.18846,66.97594
20.24846,63.27558
20.30846,63.06927
20.36846,74.96126
20.42846,63.24736
20.48846,68.12211
20.54846,75.79583
20.60846,71.73598
20.66846,95.33995
20.72846,154.558
20.78846,242.599
20.84846,133.103
20.90846,93.94981
20.96846,71.75947
21.02846,69.21903
21.08846,57.71623
21.14846,61.55879
21.20846,61.03337
21.26846,57.36236
21.32846,59.84227
21.38846,62.46035
21.44846,63.60467
21.50846,60.70877
21.56846,72.18986
21.62846,78.38803
21.68846,79.09542
21.74846,100.974
21.80846,131.494
21.86846,163.006
21.92846,101.8944
21.98846,67.36395
22.04846,70.13339
22.10846,72.64914
22.16846,57.33105
22.22846,68.91414
22.28846,57.64264
22.34846,60.34916
22.40846,59.28355
22.46846,61.89391
22.52846,57.44366
22.58846,62.71431
22.64846,56.73045
22.70846,59.18362
22.76846,58.4849
22.82846,65.28175
22.88846,60.73519
22.94846,57.78689
23.00846,57.13496
23.06846,47.18902
23.12846,67.54511
23.18846,60.2195
23.24846,59.98586
23.30846,60.27822
23.36846,60.59004
23.42846,54.17627
23.48846,54.14775
23.54846,51.23496
23.60846,60.96534
23.66846,62.32468
23.72846,62.48484
23.78846,57.71234
23.84846,65.2364
23.90846,60.43937
23.96846,53.68877
24.02846,66.39987
24.08846,56.37614
24.14846,59.74792
24.20846,67.06838
24.26846,60.28253
24.32846,61.60157
24.38846,56.80604
24.44846,63.35685
24.50846,60.73943
24.56846,61.98814
24.62846,58.83581
24.68846,65.21845
24.74846,64.8076
24.80846,64.6391
24.86846,57.67818
24.92846,58.91692
24.98846,61.00105
25.04846,72.33771
25.10846,74.69948
25.16846,107.297
25.22846,100.2307
25.28846,63.72289
25.34846,70.86523
25.40846,61.22999
25.46846,58.17484
25.52846,59.25661
25.58846,61.22458
25.64846,65.12934
25.70846,53.57288
25.76846,55.25877
25.82846,61.58633
25.88846,62.25844
25.94846,59.63238
26.00846,70.05684
26.06846,57.40373
26.12846,62.39782
26.18846,55.56158
26.24846,60.2737
26.30846,61.46366
26.36846,67.59052
26.42846,68.6485
26.48846,62.69999
26.54846,58.30162
26.60846,64.12789
26.66846,63.91591
26.72846,64.5444
26.78846,68.83393
26.84846,57.81772
26.90846,52.47907
26.96846,61.78179
27.02846,71.84521
27.08846,71.76782
27.14846,60.36983
27.20846,50.86565
27.26846,66.04252
27.32846,59.0816
27.38846,72.42997
27.44846,79.029
27.50846,84.89947
27.56846,74.08139
27.62846,75.67593
27.68846,72.67692
27.74846,60.05159
27.80846,60.49537
27.86846,59.78262
27.92846,57.15922
27.98846,63.94479
28.04846,59.33027
28.10846,62.61372
28.16846,73.92473
28.22846,60.21576
28.28846,62.3652
28.34846,61.41149
28.40846,67.19851
28.46846,71.40202
28.52846,60.83844
28.58846,61.1635
28.64846,68.14977
28.70846,60.02492
28.76846,66.72007
28.82846,62.79748
28.88846,59.93109
28.94846,58.73918
29.00846,68.98219
29.06846,63.15587
29.12846,64.51847
29.18846,70.82396
29.24846,59.18289
29.30846,66.50657
29.36846,68.8927
29.42846,55.15438
29.48846,61.16757
29.54846,62.32655
29.60846,68.28501
29.66846,58.26358
29.72846,66.76364
29.78846,61.3245
29.84846,68.67974
29.90846,76.10613
29.96846,70.24839
30.02846,53.91601
30.08846,59.26186
30.14846,58.85068
30.20846,59.27867
30.26846,59.54151
30.32846,64.58887
30.38846,56.83418
30.44846,63.00151
30.50846,55.8224
30.56846,64.53505
30.62846,56.87749
30.68846,51.31816
30.74846,62.2334
30.80846,62.41919
30.86846,61.11857
30.92846,66.64059
30.98846,69.04657
31.04846,59.38809
31.10846,71.26478
31.16846,69.93662
31.22846,62.32324
31.28846,69.00612
31.34846,55.12356
31.40846,69.55909
31.46846,68.26003
31.52846,62.77776
31.58846,56.68977
31.64846,59.54898
31.70846,61.28139
31.76846,62.04573
31.82846,68.71328
31.88846,63.0641
31.94846,67.3443
32.00846,66.91173
32.06846,65.09482
32.12846,73.9938
32.18846,77.6496
32.24846,74.63258
32.30846,65.6859
32.36846,68.28831
32.42846,72.39764
32.48846,68.73783
32.54846,76.64871
32.60846,88.94286
32.66846,96.77688
32.72846,126.715
32.78846,159.753
32.84846,278.482
32.90846,575.381
32.96846,1019.14
33.02846,687.722
33.08846,316.99
33.14846,163.846
33.20846,136.397
33.26846,102.262
33.32846,92.25408
33.38846,73.58564
33.44846,81.50238
33.50846,75.99563
33.56846,75.35546
33.62846,70.52525
33.68846,76.79443
33.74846,61.84872
33.80846,72.28834
33.86846,64.41782
33.92846,71.61065
33.98846,61.07088
34.04846,61.50278
34.10846,78.04841
34.16846,64.99628
34.22846,71.60721
34.28846,66.3579
34.34846,69.96428
34.40846,68.49688
34.46846,69.17962
34.52846,60.37835
34.58846,64.6528
34.64846,55.91301
34.70846,64.68536
34.76846,59.53652
34.82846,71.4597
34.88846,62.0848
34.94846,65.30742
35.00846,77.20634
35.06846,70.50415
35.12846,85.18449
35.18846,74.30343
35.24846,64.0007
35.30846,81.92559
35.36846,94.31221
35.42846,92.90024
35.48846,102.921
35.54846,119.796
35.60846,151.8357
35.66846,186.664
35.72846,310.332
35.78846,592.359
35.84846,865.317
35.90846,733.428
35.96846,833.92
36.02846,742.373
36.08846,478.6
36.14846,232.803
36.20846,165.487
36.26846,122.743
36.32846,111.369
36.38846,96.00681
36.44846,81.94382
36.50846,97.05371
36.56846,83.98309
36.62846,80.1573
36.68846,76.34434
36.74846,70.31854
36.80846,72.57715
36.86846,73.5445
36.92846,70.87826
36.98846,66.44617
37.04846,78.37506
37.10846,61.79491
37.16846,77.84398
37.22846,74.85713
37.28846,70.54495
37.34846,71.43203
37.40846,65.04512
37.46846,77.89619
37.52846,84.68622
37.58846,83.71598
37.64846,65.4347
37.70846,70.23297
37.76846,69.76166
37.82846,74.33296
37.88846,55.75575
37.94846,58.19833
38.00846,66.47059
38.06846,68.26613
38.12846,72.70989
38.18846,60.91587
38.24846,59.017
38.30846,66.86696
38.36846,59.35837
38.42846,70.85637
38.48846,66.34486
38.54846,68.80093
38.60846,56.01438
38.66846,65.3443
38.72846,69.39927
38.78846,59.37164
38.84846,56.85694
38.90846,67.18224
38.96846,64.1943
39.02846,70.16007
39.08846,67.58
39.14846,68.00706
39.20846,59.64847
39.26846,59.46507
39.32846,74.12226
39.38846,62.57577
39.44846,61.22886
39.50846,59.89793
39.56846,65.70557
39.62846,69.99731
39.68846,65.94025
39.74846,53.47565
39.80846,63.39098
39.86846,72.13497
39.92846,72.53948
39.98846,63.42935
40.04846,69.21052
40.10846,62.10674
40.16846,66.21112
40.22846,72.16105
40.28846,56.59075
40.34846,71.48322
40.40846,67.6321
40.46846,70.89113
40.52846,77.68306
40.58846,72.2372
40.64846,68.34292
40.70846,71.53375
40.76846,79.01728
40.82846,70.25674
40.88846,54.50969
40.94846,75.72047
41.00846,61.21061
41.06846,82.33333
41.12846,63.8744
41.18846,79.40296
41.24846,82.95687
41.30846,98.90198
41.36846,89.11718
41.42846,101.706
41.48846,118.6565
41.54846,119.308
41.60846,138.211
41.66846,192.542
41.72846,306.267
41.78846,558.911
41.84846,411.929
41.90846,339.139
41.96846,220.814
42.02846,188.04
42.08846,217.16
42.14846,229.975
42.20846,322.564
42.26846,540.216
42.32846,983.429
42.38846,1239.43
42.44846,894.49
42.50846,599.7
42.56846,317.48
42.62846,216.754
42.68846,152.231
42.74846,131.741
42.80846,120.143
42.86846,98.98344
42.92846,95.37086
42.98846,96.21927
43.04846,86.81384
43.10846,76.91271
43.16846,76.2219
43.22846,77.14848
43.28846,72.87015
43.34846,74.51404
43.40846,74.95929
43.46846,78.84699
43.52846,70.43355
43.58846,68.16911
43.64846,68.02506
43.70846,70.75715
43.76846,77.24572
43.82846,74.05016
43.88846,55.68553
43.94846,76.10622
44.00846,83.2431
44.06846,89.8457
44.12846,87.04229
44.18846,87.40392
44.24846,135.789
44.30846,176.722
44.36846,147.704
44.42846,156.814
44.48846,172.104
44.54846,293.422
44.60846,224.9
44.66846,190.389
44.72846,135.348
44.78846,92.70418
44.84846,77.84735
44.90846,84.76516
44.96846,71.93791
45.02846,78.2825
45.08846,80.42262
45.14846,78.03234
45.20846,81.73542
45.26846,73.22947
45.32846,88.84928
45.38846,78.20955
45.44846,69.52498
45.50846,90.42437
45.56846,98.59772
45.62846,100.549
45.68846,147.966
45.74846,262.871
45.80846,249.752
45.86846,244.512
45.92846,292.125
45.98846,272.312
46.04846,210.142
46.10846,151.693
46.16846,111.0746
46.22846,79.36202
46.28846,75.30654
46.34846,76.45436
46.40846,80.83923
46.46846,58.57532
46.52846,70.3734
46.58846,74.84584
46.64846,67.03235
46.70846,72.57202
46.76846,71.7733
46.82846,60.85859
46.88846,67.19123
46.94846,61.07789
47.00846,71.60468
47.06846,64.28416
47.12846,59.38914
47.18846,59.84383
47.24846,68.83663
47.30846,61.56386
47.36846,63.78728
47.42846,74.46401
47.48846,60.45842
47.54846,65.38593
47.60846,73.80252
47.66846,59.87089
47.72846,66.85404
47.78846,78.22184
47.84846,70.10862
47.90846,67.8895
47.96846,63.11983
48.02846,63.86474
48.08846,60.71658
48.14846,56.77196
48.20846,69.63608
48.26846,60.40295
48.32846,64.03255
48.38846,69.36208
48.44846,57.83407
48.50846,65.3214
48.56846,62.71901
48.62846,65.28778
48.68846,62.41499
48.74846,69.35745
48.80846,65.77791
48.86846,58.79655
48.92846,68.05396
48.98846,65.50245
49.04846,69.15505
49.10846,70.66661
49.16846,72.83879
49.22846,73.38719
49.28846,68.892
49.34846,76.54025
49.40846,82.27851
49.46846,99.29946
49.52846,139.769
49.58846,112.162
49.64846,99.19517
49.70846,95.07086
49.76846,71.45385
49.82846,70.97318
49.88846,78.53832
49.94846,67.48702
50.00846,61.55153
50.06846,67.04116
50.12846,65.12132
50.18846,75.07583
50.24846,67.92132
50.30846,71.51689
50.36846,70.95156
50.42846,63.07158
50.48846,53.5105
50.54846,69.83466
50.60846,60.40154
50.66846,65.84755
50.72846,69.2353
50.78846,68.04876
50.84846,66.2656
50.90846,60.99269
50.96846,70.99678
51.02846,54.19903
51.08846,52.43533
51.14846,60.172
51.20846,60.53746
51.26846,70.73526
51.32846,57.80113
51.38846,67.37817
51.44846,72.17741
51.50846,65.12354
51.56846,74.04099
51.62846,68.646
51.68846,76.02661
51.74846,84.48777
51.80846,86.21304
51.86846,69.08001
51.92846,72.17609
51.98846,71.9895
52.04846,68.03636
52.10846,66.62534
52.16846,70.0187
52.22846,71.3462
52.28846,78.90023
52.34846,64.0711
52.40846,62.24188
52.46846,62.34311
52.52846,64.73423
52.58846,61.1909
52.64846,65.15126
52.70846,62.64227
52.76846,70.32833
52.82846,62.37956
52.88846,68.02242
52.94846,67.76574
53.00846,56.35779
53.06846,66.47926
53.12846,65.7419
53.18846,65.99244
53.24846,64.09413
53.30846,60.73848
53.36846,61.16339
53.42846,54.46296
53.48846,65.05086
53.54846,64.1976
53.60846,48.02373
53.66846,66.94829
53.72846,70.84124
53.78846,57.51044
53.84846,63.39123
53.90846,67.42813
53.96846,67.93827
54.02846,50.15267
54.08846,59.34136
54.14846,69.50274
54.20846,59.79489
54.26846,65.37736
54.32846,59.30645
54.38846,71.24028
54.44846,65.12658
54.50846,60.43578
54.56846,63.29923
54.62846,63.04972
54.68846,62.18366
54.74846,69.6815
54.80846,59.79913
54.86846,67.38823
54.92846,62.07447
54.98846,58.70853
55.04846,65.62324
55.10846,61.03786
55.16846,62.83208
55.22846,63.51093
55.28846,69.48239
55.34846,60.80015
55.40846,70.8105
55.46846,55.94852
55.52846,66.57648
55.58846,62.28428
55.64846,62.55073
55.70846,66.67312
55.76846,68.87437
55.82846,68.7192
55.88846,73.18838
55.94846,80.79847
56.00846,70.76054
56.06846,71.07695
56.12846,72.44535
56.18846,95.51973
56.24846,79.02692
56.30846,80.33142
56.36846,84.22479
56.42846,87.79497
56.48846,102.353
56.54846,119.907
56.60846,146.908
56.66846,121.578
56.72846,135.219
56.78846,102.815
56.84846,122.231
56.90846,149.539
56.96846,159.502
57.02846,136.872
57.08846,109.62
57.14846,91.91257
57.20846,78.41394
57.26846,75.89366
57.32846,73.60389
57.38846,82.56551
57.44846,73.08189
57.50846,75.47189
57.56846,68.36107
57.62846,63.32982
57.68846,66.63093
57.74846,71.91663
57.80846,70.39829
57.86846,54.60786
57.92846,68.74656
57.98846,66.12824
58.04846,77.27617
58.10846,76.13887
58.16846,68.46472
58.22846,69.71348
58.28846,73.91197
58.34846,70.94674
58.40846,79.66344
58.46846,75.86836
58.52846,72.54679
58.58846,72.23981
58.64846,71.62597
58.70846,76.4267
58.76846,70.91862
58.82846,74.61507
58.88846,71.33301
58.94846,76.36337
59.00846,60.61574
59.06846,63.84384
59.12846,77.08867
59.18846,67.65558
59.24846,71.10041
59.30846,70.71854
59.36846,67.36354
59.42846,73.32832
59.48846,70.85301
59.54846,79.27396
59.60846,68.39144
59.66846,62.48386
59.72846,68.36145
59.78846,60.83718
59.84846,68.60897
59.90846,73.27806
59.96846,67.90445
60.02846,68.94764
60.08846,71.57524
60.14846,70.01715
60.20846,57.89468
60.26846,59.05869
60.32846,70.6365
60.38846,66.95713
60.44846,68.61815
60.50846,62.56515
60.56846,68.26534
60.62846,70.58261
60.68846,63.29274
60.74846,59.3657
60.80846,74.79911
60.86846,68.74035
60.92846,60.03755
60.98846,71.51287
61.04846,56.85843
61.10846,66.02694
61.16846,69.81443
61.22846,69.88498
61.28846,62.56539
61.34846,74.54004
61.40846,66.84997
61.46846,65.11129
61.52846,73.81205
61.58846,74.731
61.64846,83.38756
61.70846,65.18849
61.76846,75.67696
61.82846,74.26163
61.88846,61.17862
61.94846,75.51752
62.00846,74.21382
62.06846,71.75678
62.12846,66.5089
62.18846,73.92217
62.24846,70.31411
62.30846,93.40003
62.36846,87.07013
62.42846,92.27423
62.48846,117.288
62.54846,147.261
62.60846,165.696
62.66846,138.665
62.72846,146.4915
62.78846,110.789
62.84846,116.61
62.90846,90.32551
62.96846,88.2681
63.02846,76.34792
63.08846,69.35045
63.14846,60.42846
63.20846,66.51227
63.26846,70.96952
63.32846,72.86669
63.38846,81.14764
63.44846,76.32366
63.50846,79.97934
63.56846,82.8744
63.62846,68.85305
63.68846,83.41073
63.74846,79.32151
63.80846,74.94957
63.86846,81.92563
63.92846,74.06318
63.98846,77.21654
64.04846,71.29678
64.10846,83.73929
64.16846,97.18437
64.22846,88.08551
64.28846,107.51
64.34846,146.143
64.40846,193.33
64.46846,205.257
64.52846,204.362
64.58846,189.655
64.64846,150.877
64.70846,126.24
64.76846,106.273
64.82846,113.447
64.88846,102.02
64.94846,82.75378
65.00846,92.10364
65.06846,75.47692
65.12846,77.34531
65.18846,73.29844
65.24846,78.59536
65.30846,71.98832
65.36846,80.09484
65.42846,75.89911
65.48846,79.23643
65.54846,94.0359
65.60846,101.129
65.66846,96.11254
65.72846,121.8996
65.78846,149.69
65.84846,148.275
65.90846,120.699
65.96846,138.172
66.02846,101.513
66.08846,87.58267
66.14846,83.67768
66.20846,73.98806
66.26846,72.63861
66.32846,61.24972
66.38846,88.29028
66.44846,73.26439
66.50846,75.89144
66.56846,75.43527
66.62846,66.59043
66.68846,83.2759
66.74846,68.68339
66.80846,68.92081
66.86846,61.70613
66.92846,68.26219
66.98846,65.14321
67.04846,63.27462
67.10846,68.66879
67.16846,70.72664
67.22846,67.16717
67.28846,71.60262
67.34846,77.13623
67.40846,65.75117
67.46846,65.40602
67.52846,71.68356
67.58846,81.24641
67.64846,76.8423
67.70846,79.59835
67.76846,70.31835
67.82846,77.61909
67.88846,79.82068
67.94846,78.13577
68.00846,78.63909
68.06846,71.90178
68.12846,76.06257
68.18846,73.60284
68.24846,83.21204
68.30846,81.16301
68.36846,80.19833
68.42846,87.12624
68.48846,98.89988
68.54846,101.309
68.60846,117.609
68.66846,126.485
68.72846,161.202
68.78846,239.015
68.84846,306.222
68.90846,315.018
68.96846,263.935
69.02846,254.551
69.08846,280.3951
69.14846,263.249
69.20846,211.506
69.26846,180.023
69.32846,167.701
69.38846,130.263
69.44846,111.315
69.50846,101.606
69.56846,91.34363
69.62846,78.52509
69.68846,82.92125
69.74846,79.28608
69.80846,82.95388
69.86846,70.87253
69.92846,77.2
69.98846,75.45803
70.04846,68.16558
70.10846,69.32401
70.16846,61.01383
70.22846,73.05915
70.28846,75.85271
70.34846,74.47264
70.40846,68.86485
70.46846,70.93139
70.52846,69.51713
70.58846,67.60986
70.64846,66.89964
70.70846,68.18983
70.76846,71.73553
70.82846,63.6693
70.88846,73.53112
70.94846,68.22679
71.00846,72.47495
71.06846,70.0751
71.12846,65.53152
71.18846,72.33211
71.24846,61.7348
71.30846,78.33591
71.36846,75.76184
71.42846,87.22375
71.48846,96.2607
71.54846,123.024
71.60846,105.8235
71.66846,92.90323
71.72846,97.82479
71.78846,97.79121
71.84846,77.66693
71.90846,83.78625
71.96846,74.07544
72.02846,71.30935
72.08846,64.38846
72.14846,72.75657
72.20846,84.24453
72.26846,67.57625
72.32846,75.31281
72.38846,66.89289
72.44846,81.72318
72.50846,60.46401
72.56846,67.5876
72.62846,67.85545
72.68846,71.51726
72.74846,58.51512
72.80846,69.8252
72.86846,63.44267
72.92846,73.67593
72.98846,65.55639
73.04846,59.14551
73.10846,63.79068
73.16846,74.8994
73.22846,58.8372
73.28846,58.14829
73.34846,73.73761
73.40846,60.83957
73.46846,75.23934
73.52846,67.12777
73.58846,77.50178
73.64846,72.80953
73.70846,75.13947
73.76846,56.07552
73.82846,64.51552
73.88846,74.85711
73.94846,66.41048
74.00846,73.6231
74.06846,72.32697
74.12846,68.94186
74.18846,85.42664
74.24846,83.26868
74.30846,75.12233
74.36846,81.33811
74.42846,80.1877
74.48846,82.1305
74.54846,77.83248
74.60846,70.50104
74.66846,72.1936
74.72846,76.26005
74.78846,74.14574
74.84846,74.01659
74.90846,57.54206
74.96846,61.09518
75.02846,64.0001