File: data/xrd_icdd_PDF/00-052-1682 (PD3).csv
5,1519
5.1,1490
5.2,1449
5.3,1440
5.4,1352
5.5,1327
5.6,1423
5.7,1364
5.8,1267
5.9,1338
6,1315
6.1,1247
6.2,1268
6.3,1221
6.4,1210
6.5,1279
6.6,1251
6.7,1236
6.8,1255
6.9,1171
7,1193
7.1,1223
7.2,1211
7.3,1205
7.4,1221
7.5,1146
7.6,1228
7.7,1151
7.8,1143
7.9,1147
8,1163
8.1,1173
8.2,1175
8.3,1137
8.4,1139
8.5,1126
8.6,1174
8.7,1161
8.8,1212
8.9,1149
9,1091
9.1,1128
9.2,1146
9.3,1117
9.4,1092
9.5,1101
9.6,1099
9.7,1125
9.8,1071
9.9,1128
10,1086
10.1,1142
10.2,1092
10.3,1124
10.4,1081
10.5,1083
10.6,1153
10.7,1074
10.8,1117
10.9,1052
11,1088
11.1,1103
11.2,1079
11.3,1085
11.4,1089
11.5,1087
11.6,1107
11.7,1064
11.8,1055
11.9,1085
12,1045
12.1,1077
12.2,1318
12.3,1512
12.4,1969
12.5,6952
12.6,46345
12.7,5131
12.8,1851
12.9,1400
13,1321
13.1,1238
13.2,1200
13.3,1185
13.4,1142
13.5,1147
13.6,1183
13.7,1173
13.8,1153
13.9,1132
14,1075
14.1,1089
14.2,1062
14.3,1023
14.4,1083
14.5,1099
14.6,1108
14.7,1067
14.8,1089
14.9,1036
15,1006
15.1,1045
15.2,951
15.3,1008
15.4,976
15.5,999
15.6,1012
15.7,946
15.8,1001
15.9,1010
16,940
16.1,899
16.2,971
16.3,980
16.4,932
16.5,929
16.6,913
16.7,975
16.8,962
16.9,905
17,962
17.1,945
17.2,932
17.3,947
17.4,936
17.5,913
17.6,969
17.7,976
17.8,895
17.9,894
18,909
18.1,906
18.2,864
18.3,925
18.4,890
18.5,923
18.6,877
18.7,888
18.8,879
18.9,881
19,844
19.1,876
19.2,832
19.3,883
19.4,855
19.5,879
19.6,841
19.7,915
19.8,914
19.9,889
20,978
20.1,1010
20.2,892
20.3,887
20.4,874
20.5,850
20.6,837
20.7,904
20.8,914
20.9,958
21,874
21.1,920
21.2,991
21.3,990
21.4,1053
21.5,1046
21.6,1153
21.7,1517
21.8,5583
21.9,24483
22,5527
22.1,1532
22.2,1166
22.3,1057
22.4,1044
22.5,944
22.6,968
22.7,962
22.8,956
22.9,937
23,915
23.1,915
23.2,937
23.3,906
23.4,939
23.5,896
23.6,896
23.7,898
23.8,891
23.9,874
24,907
24.1,888
24.2,885
24.3,831
24.4,883
24.5,860
24.6,894
24.7,840
24.8,859
24.9,834
25,895
25.1,896
25.2,1016
25.3,2377
25.4,4041
25.5,1127
25.6,891
25.7,896
25.8,817
25.9,889
26,823
26.1,869
26.2,852
26.3,792
26.4,865
26.5,853
26.6,868
26.7,867
26.8,846
26.9,846
27,865
27.1,895
27.2,877
27.3,894
27.4,902
27.5,867
27.6,878
27.7,928
27.8,970
27.9,1070
28,1125
28.1,1463
28.2,2146
28.3,9155
28.4,31318
28.5,5707
28.6,1917
28.7,1488
28.8,1177
28.9,1008
29,902
29.1,936
29.2,951
29.3,899
29.4,899
29.5,892
29.6,983
29.7,962
29.8,939
29.9,931
30,967
30.1,1006
30.2,1004
30.3,1065
30.4,1055
30.5,1032
30.6,1094
30.7,1122
30.8,1371
30.9,1770
31,3411
31.1,20827
31.2,30677
31.3,5378
31.4,2098
31.5,1445
31.6,1247
31.7,1083
31.8,997
31.9,946
32,946
32.1,921
32.2,943
32.3,912
32.4,900
32.5,908
32.6,915
32.7,882
32.8,916
32.9,853
33,857
33.1,871
33.2,846
33.3,828
33.4,831
33.5,912
33.6,1129
33.7,2667
33.8,4242
33.9,1607
34,996
34.1,859
34.2,884
34.3,909
34.4,914
34.5,889
34.6,865
34.7,887
34.8,888
34.9,837
35,812
35.1,805
35.2,861
35.3,800
35.4,817
35.5,830
35.6,817
35.7,849
35.8,880
35.9,1061
36,4228
36.1,3660
36.2,1242
36.3,885
36.4,870
36.5,827
36.6,871
36.7,834
36.8,846
36.9,762
37,762
37.1,863
37.2,906
37.3,884
37.4,894
37.5,895
37.6,947
37.7,1030
37.8,976
37.9,1035
38,1316
38.1,1580
38.2,2357
38.3,10050
38.4,36856
38.5,20763
38.6,3866
38.7,1772
38.8,1301
38.9,1167
39,993
39.1,914
39.2,917
39.3,872
39.4,869
39.5,846
39.6,792
39.7,801
39.8,794
39.9,794
40,776
40.1,773
40.2,780
40.3,792
40.4,764
40.5,779
40.6,771
40.7,735
40.8,782
40.9,725
41,742
41.1,806
41.2,765
41.3,789
41.4,794
41.5,765
41.6,757
41.7,751
41.8,780
41.9,773
42,704
42.1,760
42.2,763
42.3,767
42.4,837
42.5,1071
42.6,2403
42.7,2259
42.8,1502
42.9,877
43,760
43.1,749
43.2,763
43.3,778
43.4,776
43.5,756
43.6,742
43.7,759
43.8,724
43.9,733
44,763
44.1,774
44.2,809
44.3,827
44.4,980
44.5,1979
44.6,4743
44.7,5402
44.8,2314
44.9,940
45,788
45.1,790
45.2,781
45.3,724
45.4,746
45.5,783
45.6,730
45.7,724
45.8,779
45.9,734
46,767
46.1,782
46.2,738
46.3,801
46.4,877
46.5,1078
46.6,5102
46.7,2683
46.8,1296
46.9,911
47,811
47.1,804
47.2,776
47.3,752
47.4,755
47.5,777
47.6,725
47.7,771
47.8,747
47.9,747
48,772
48.1,802
48.2,919
48.3,1016
48.4,2834
48.5,3198
48.6,3221
48.7,1018
48.8,858
48.9,728
49,768
49.1,775
49.2,778
49.3,771
49.4,809
49.5,832
49.6,803
49.7,828
49.8,884
49.9,1001
50,1271
50.1,2128
50.2,12390
50.3,7001
50.4,3026
50.5,1261
50.6,946
50.7,876
50.8,832
50.9,797
51,778
51.1,793
51.2,743
51.3,781
51.4,763
51.5,700
51.6,708
51.7,744
51.8,794
51.9,903
52,1819
52.1,3083
52.2,2861
52.3,1022
52.4,876
52.5,793
52.6,760
52.7,743
52.8,794
52.9,763
53,799
53.1,783
53.2,788
53.3,901
53.4,994
53.5,1080
53.6,1781
53.7,9773
53.8,3724
53.9,2309
54,1109
54.1,852
54.2,828
54.3,788
54.4,731
54.5,742
54.6,717
54.7,724
54.8,707
54.9,714
55,710
55.1,701
55.2,729
55.3,816
55.4,755
55.5,726
55.6,713
55.7,688
55.8,704
55.9,665
56,684
56.1,672
56.2,692
56.3,684
56.4,687
56.5,661
56.6,690
56.7,709
56.8,750
56.9,1039
57,950
57.1,2060
57.2,1479
57.3,1781
57.4,877
57.5,760
57.6,765
57.7,781
57.8,741
57.9,762
58,733
58.1,722
58.2,762
58.3,752
58.4,776
58.5,841
58.6,1056
58.7,2241
58.8,1400
58.9,1088
59,860
59.1,821
59.2,819
59.3,821
59.4,867
59.5,896
59.6,907
59.7,916
59.8,911
59.9,1046
60,1371
60.1,2153
60.2,4319
60.3,12428
60.4,9988
60.5,9626
60.6,2778
60.7,1388
60.8,1085
60.9,944
61,938
61.1,885
61.2,882
61.3,899
61.4,836
61.5,934
61.6,1064
61.7,3142
61.8,2810
61.9,3228
62,1329
62.1,924
62.2,822
62.3,788
62.4,748
62.5,691
62.6,739
62.7,736
62.8,738
62.9,709
63,705
63.1,731
63.2,709
63.3,690
63.4,753
63.5,824
63.6,766
63.7,744
63.8,744
63.9,717
64,744
64.1,717
64.2,697
64.3,748
64.4,741
64.5,853
64.6,816
64.7,938
64.8,1080
64.9,3582
65,2665
65.1,3083
65.2,1293
65.3,864
65.4,777
65.5,747
65.6,769
65.7,753
65.8,737
65.9,726
66,779
66.1,920
66.2,1055
66.3,3505
66.4,3243
66.5,3350
66.6,1823
66.7,1218
66.8,948
66.9,790
67,817
67.1,747
67.2,706
67.3,695
67.4,706
67.5,698
67.6,689
67.7,718
67.8,681
67.9,723
68,709
68.1,672
68.2,680
68.3,652
68.4,701
68.5,695
68.6,705
68.7,688
68.8,691
68.9,647
69,680
69.1,718
69.2,796
69.3,970
69.4,2047
69.5,3759
69.6,1821
69.7,2317
69.8,945
69.9,808
70,737
70.1,668
70.2,685
70.3,683
70.4,715
70.5,670
70.6,699
70.7,676
70.8,690
70.9,709
71,840
71.1,724
71.2,746
71.3,658
71.4,665
71.5,669
71.6,680
71.7,696
71.8,670
71.9,725
72,676
72.1,754
72.2,847
72.3,1690
72.4,2076
72.5,1246
72.6,1539
72.7,817
72.8,760
72.9,717
73,721
73.1,730
73.2,692
73.3,734
73.4,761
73.5,809
73.6,933
73.7,1849
73.8,1970
73.9,2398
74,1327
74.1,1548
74.2,800
74.3,712
74.4,704
74.5,684
74.6,676
74.7,695
74.8,618
74.9,665
75,786
75.1,1284
75.2,898
75.3,1249
75.4,911
75.5,904
75.6,730
75.7,688
75.8,676
75.9,656
76,717
76.1,713
76.2,673
76.3,792
76.4,1547
76.5,917
76.6,1054
76.7,840
76.8,668
76.9,695
77,642
77.1,694
77.2,693
77.3,698
77.4,719
77.5,723
77.6,806
77.7,852
77.8,1547
77.9,1284
78,2035
78.1,4881
78.2,1874
78.3,2511
78.4,1655
78.5,898
78.6,750
78.7,740
78.8,757
78.9,689
79,717
79.1,667
79.2,687
79.3,678
79.4,750
79.5,669
79.6,708
79.7,646
79.8,661
79.9,621
80,618
80.1,633
80.2,652
80.3,695
80.4,652
80.5,690
80.6,833
80.7,737
80.8,863
80.9,1115
81,772
81.1,934
81.2,729
81.3,684
81.4,671
81.5,668
81.6,676
81.7,651
81.8,681
81.9,680
82,985
82.1,810
82.2,804
82.3,1082
82.4,768
82.5,768
82.6,746
82.7,660
82.8,658
82.9,682
83,681
83.1,700
83.2,725
83.3,818
83.4,928
83.5,2422
83.6,2516
83.7,1978
83.8,2593
83.9,1238
84,1159
84.1,815
84.2,694
84.3,694
84.4,651
84.5,609
84.6,657
84.7,622
84.8,646
84.9,604
85,703
85.1,836
85.2,651
85.3,683
85.4,679
85.5,657
85.6,660
85.7,612
85.8,646
85.9,677
86,720
86.1,854
86.2,1452
86.3,1022
86.4,1504
86.5,2322
86.6,1112
86.7,1183
86.8,1179
86.9,710
87,681
87.1,663
87.2,616
87.3,599
87.4,612
87.5,591
87.6,637
87.7,583
87.8,588
87.9,616
88,585
88.1,596
88.2,632
88.3,619
88.4,643
88.5,631
88.6,622
88.7,655
88.8,716
88.9,1231
89,1210
89.1,960
89.2,2265
89.3,1481
89.4,940
89.5,1459
89.6,919
89.7,682
89.8,660
89.9,609
90,603
90.1,646
90.2,601
90.3,638
90.4,627
90.5,595
90.6,584
90.7,585
90.8,619
90.9,596
91,604
91.1,619
91.2,663
91.3,617
91.4,599
91.5,611
91.6,639
91.7,698
91.8,855
91.9,883
92,740
92.1,816
92.2,748
92.3,668
92.4,630
92.5,636
92.6,645
92.7,651
92.8,631
92.9,664
93,708
93.1,842
93.2,712
93.3,717
93.4,762
93.5,626
93.6,663
93.7,641
93.8,665
93.9,646
94,651
94.1,674
94.2,723
94.3,767
94.4,1022
94.5,1433
94.6,1244
94.7,2411
94.8,1872
94.9,1112
95,1511
95.1,1180
95.2,823
95.3,697
95.4,677
95.5,667
95.6,682
95.7,659
95.8,683
95.9,870
96,1526
96.1,826
96.2,814
96.3,1101
96.4,772
96.5,692
96.6,652
96.7,617
96.8,666
96.9,653
97,677
97.1,616
97.2,664
97.3,683
97.4,960
97.5,1387
97.6,806
97.7,761
97.8,1096
97.9,750
98,666
98.1,672
98.2,624
98.3,662
98.4,713
98.5,749
98.6,1444
98.7,1141
98.8,855
98.9,1175
99,1348
99.1,802
99.2,785
99.3,852
99.4,688
99.5,665
99.6,640
99.7,645
99.8,665
99.9,698
100,757
100.1,1209
100.2,1622
100.3,1291
100.4,1149
100.5,1330
100.6,968
100.7,961
100.8,744
100.9,657
101,642
101.1,637
101.2,661
101.3,646
101.4,634
101.5,638
101.6,669
101.7,771
101.8,705
101.9,647
102,662
102.1,714
102.2,623
102.3,624
102.4,640
102.5,670
102.6,698
102.7,786
102.8,1072
102.9,1069
103,922
103.1,1384
103.2,1198
103.3,853
103.4,834
103.5,963
103.6,699
103.7,610
103.8,622
103.9,634
104,622
104.1,658
104.2,613
104.3,625
104.4,642
104.5,612
104.6,631
104.7,665
104.8,658
104.9,622
105,651
105.1,665
105.2,668
105.3,682
105.4,804
105.5,1282
105.6,1136
105.7,1594
105.8,1037
105.9,1104
106,968
106.1,1014
106.2,737
106.3,705
106.4,650
106.5,687
106.6,651
106.7,684
106.8,757
106.9,1068
107,1104
107.1,818
107.2,874
107.3,1272
107.4,1434
107.5,1050
107.6,859
107.7,859
107.8,1004
107.9,822
108,681
108.1,679
108.2,651
108.3,643
108.4,639
108.5,651
108.6,704
108.7,874
108.8,751
108.9,657
109,660
109.1,744
109.2,680
109.3,651
109.4,623
109.5,639
109.6,662
109.7,648
109.8,621
109.9,652
110,686
110.1,771
110.2,970
110.3,1410
110.4,932
110.5,807
110.6,868
110.7,1060
110.8,882
110.9,751
111,725
111.1,769
111.2,840
111.3,1195
111.4,1220
111.5,1240
111.6,1814
111.7,2595
111.8,2600
111.9,1688
112,1430
112.1,1630
112.2,1650
112.3,1183
112.4,838
112.5,729
112.6,707
112.7,679
112.8,689
112.9,670
113,656
113.1,613
113.2,653
113.3,650
113.4,615
113.5,658
113.6,648
113.7,646
113.8,649
113.9,665
114,652
114.1,666
114.2,693
114.3,838
114.4,824
114.5,984
114.6,743
114.7,728
114.8,755
114.9,787
115,766
115.1,686
115.2,637
115.3,652
115.4,613
115.5,665
115.6,635
115.7,624
115.8,623
115.9,648
116,776
116.1,698
116.2,689
116.3,662
116.4,690
116.5,704
116.6,667
116.7,666
116.8,675
116.9,652
117,660
117.1,636
117.2,652
117.3,636
117.4,666
117.5,724
117.6,782
117.7,1305
117.8,1124
117.9,957
118,812
118.1,822
118.2,1050
118.3,827
118.4,797
118.5,751
118.6,723
118.7,688
118.8,701
118.9,1015
119,1057
119.1,735
119.2,671
119.3,703
119.4,896
119.5,807
119.6,678
119.7,647
119.8,657
119.9,644
120,632
120.1,670
120.2,652
120.3,669
120.4,643
120.5,798
120.6,804
120.7,811
120.8,806
120.9,763
121,972
121.1,1313
121.2,915
121.3,801
121.4,729
121.5,808
121.6,913
121.7,769
121.8,661
121.9,671
122,657
122.1,647
122.2,662
122.3,619
122.4,656
122.5,652
122.6,701
122.7,832
122.8,809
122.9,695
123,673
123.1,665
123.2,723
123.3,723
123.4,679
123.5,671
123.6,646
123.7,681
123.8,659
123.9,710
124,726
124.1,788
124.2,1089
124.3,1572
124.4,1184
124.5,840
124.6,761
124.7,792
124.8,1039
124.9,1017
125,789
125.1,713
125.2,673
125.3,670
125.4,681
125.5,664
125.6,664
125.7,691
125.8,714
125.9,712
126,677
126.1,688
126.2,669
126.3,668
126.4,704
126.5,672
126.6,669
126.7,656
126.8,651
126.9,656
127,669
127.1,685
127.2,708
127.3,708
127.4,737
127.5,961
127.6,1180
127.7,878
127.8,870
127.9,776
128,756
128.1,856
128.2,861
128.3,798
128.4,774
128.5,749
128.6,699
128.7,682
128.8,678
128.9,672
129,715
129.1,702
129.2,700
129.3,701
129.4,650
129.5,656
129.6,727
129.7,724
129.8,745
129.9,681
130,731
130.1,685
130.2,760
130.3,805
130.4,819
130.5,910
130.6,1089
130.7,1730
130.8,1678
130.9,1669
131,1647
131.1,1390
131.2,1709
131.3,2668
131.4,2371
131.5,1543
131.6,1411
131.7,1206
131.8,1134
131.9,1408
132,1453
132.1,1089
132.2,874
132.3,805
132.4,784
132.5,775
132.6,794
132.7,790
132.8,824
132.9,921
133,1219
133.1,1004
133.2,816
133.3,785
133.4,789
133.5,764
133.6,894
133.7,941
133.8,827
133.9,780
134,765
134.1,767
134.2,738
134.3,724
134.4,856
134.5,930
134.6,1035
134.7,1360
134.8,1262
134.9,1066
135,1205
135.1,1275
135.2,1024
135.3,993
135.4,1097
135.5,1014
135.6,910
135.7,958
135.8,967
135.9,874
136,809
136.1,856
136.2,858
136.3,761
136.4,732
136.5,740
136.6,757
136.7,766
136.8,808
136.9,880
137,1033
137.1,1037
137.2,860
137.3,778
137.4,711
137.5,751
137.6,756
137.7,838
137.8,845
137.9,819
138,779
138.1,858
138.2,896
138.3,769
138.4,740
138.5,726
138.6,720
138.7,698
138.8,783
138.9,774
139,779
139.1,812
139.2,853
139.3,807
139.4,753
139.5,727
139.6,748
139.7,686
139.8,704
139.9,733
140,742