File: data/xrd_icdd_PDF/00-059-0216 (PD3).csv
6,11549
6.08,11506
6.16,11495
6.24,11497
6.32,11429
6.4,11406
6.48,11423
6.56,11336
6.64,11394
6.72,11367
6.8,11402
6.88,11353
6.96,11257
7.04,11267
7.12,11273
7.2,11251
7.28,11237
7.36,11239
7.44,11237
7.52,11176
7.6,11247
7.68,11238
7.76,11222
7.84,11177
7.92,11220
8,11091
8.08,11151
8.16,11148
8.24,11116
8.32,11102
8.4,11089
8.48,11132
8.56,11090
8.64,11050
8.72,11036
8.8,11056
8.88,11060
8.96,11063
9.04,11064
9.12,11029
9.2,11051
9.28,10993
9.36,10972
9.44,10974
9.52,11010
9.6,10979
9.68,10943
9.76,10981
9.84,11017
9.92,10957
10,10971
10.08,10930
10.16,10960
10.24,10901
10.32,10911
10.4,10954
10.48,10887
10.56,10897
10.64,10891
10.72,10825
10.8,10939
10.88,10953
10.96,10845
11.04,10930
11.12,10894
11.2,10845
11.28,10859
11.36,10885
11.44,10864
11.52,10840
11.6,10840
11.68,10864
11.76,10775
11.84,10867
11.92,10874
12,10857
12.08,10792
12.16,10879
12.24,10839
12.32,10903
12.4,10815
12.48,10799
12.56,10787
12.64,10822
12.72,10803
12.8,10761
12.88,10828
12.96,10847
13.04,10903
13.12,10843
13.2,10829
13.28,10808
13.36,10844
13.44,10805
13.52,10840
13.6,10804
13.68,10796
13.76,10857
13.84,10753
13.92,10767
14,10777
14.08,10758
14.16,10804
14.24,10804
14.32,10786
14.4,10724
14.48,10782
14.56,10802
14.64,10750
14.72,10850
14.8,10723
14.88,10794
14.96,10845
15.04,10733
15.12,10794
15.2,10758
15.28,10819
15.36,10765
15.44,10736
15.52,10746
15.6,10778
15.68,10800
15.76,10836
15.84,10742
15.92,10811
16,10768
16.08,10710
16.16,10828
16.24,10763
16.32,10764
16.4,10768
16.48,10697
16.56,10709
16.64,10810
16.72,10772
16.8,10785
16.88,10801
16.96,10752
17.04,10689
17.12,10726
17.2,10754
17.28,10779
17.36,10747
17.44,10777
17.52,10779
17.6,10889
17.68,10710
17.76,10755
17.84,10735
17.92,10776
18,10715
18.08,10665
18.16,10734
18.24,10750
18.32,10761
18.4,10777
18.48,10691
18.56,10675
18.64,10718
18.72,10762
18.8,10781
18.88,10760
18.96,10813
19.04,10801
19.12,10675
19.2,10705
19.28,10757
19.36,10746
19.44,10797
19.52,10743
19.6,10799
19.68,10746
19.76,10730
19.84,10775
19.92,10746
20,10751
20.08,10744
20.16,10747
20.24,10701
20.32,10754
20.4,10757
20.48,10823
20.56,10818
20.64,10942
20.72,10834
20.8,10718
20.88,10672
20.96,10781
21.04,10692
21.12,10711
21.2,10816
21.28,10672
21.36,10715
21.44,10719
21.52,10770
21.6,10678
21.68,10759
21.76,10667
21.84,10772
21.92,10696
22,10703
22.08,10655
22.16,10749
22.24,10633
22.32,10679
22.4,10650
22.48,10725
22.56,10627
22.64,10653
22.72,10678
22.8,10714
22.88,10636
22.96,10686
23.04,10584
23.12,10722
23.2,10694
23.28,10697
23.36,10684
23.44,10629
23.52,10614
23.6,10714
23.68,10575
23.76,10621
23.84,10658
23.92,10791
24,11163
24.08,11078
24.16,10774
24.24,10664
24.32,10671
24.4,10598
24.48,10659
24.56,10639
24.64,10729
24.72,10967
24.8,11747
24.88,13292
24.96,12352
25.04,10846
25.12,10662
25.2,10620
25.28,10666
25.36,10651
25.44,10640
25.52,10651
25.6,10611
25.68,10705
25.76,10663
25.84,10732
25.92,10713
26,10678
26.08,10785
26.16,10914
26.24,11599
26.32,13808
26.4,14042
26.48,11536
26.56,10825
26.64,10744
26.72,10729
26.8,10742
26.88,10742
26.96,10665
27.04,10671
27.12,10718
27.2,10695
27.28,10724
27.36,10710
27.44,10815
27.52,10763
27.6,10792
27.68,10755
27.76,10772
27.84,10814
27.92,10811
28,10768
28.08,10725
28.16,10726
28.24,10742
28.32,10739
28.4,10702
28.48,10658
28.56,10650
28.64,10689
28.72,10698
28.8,10648
28.88,10694
28.96,10765
29.04,10692
29.12,10709
29.2,10693
29.28,10750
29.36,10748
29.44,10830
29.52,10800
29.6,11012
29.68,11314
29.76,12518
29.84,16745
29.92,17728
30,13579
30.08,11278
30.16,10928
30.24,10799
30.32,10752
30.4,10631
30.48,10708
30.56,10685
30.64,10647
30.72,10648
30.8,10626
30.88,10641
30.96,10634
31.04,10629
31.12,10560
31.2,10611
31.28,10777
31.36,10724
31.44,10568
31.52,10612
31.6,10644
31.68,10527
31.76,10599
31.84,10586
31.92,10600
32,10611
32.08,10605
32.16,10600
32.24,10646
32.32,10646
32.4,10630
32.48,10744
32.56,10703
32.64,10817
32.72,10703
32.8,10850
32.88,11022
32.96,11423
33.04,12755
33.12,18140
33.2,26337
33.28,19432
33.36,12606
33.44,11387
33.52,11101
33.6,11105
33.68,11403
33.76,12438
33.84,13986
33.92,16953
34,14963
34.08,14279
34.16,21547
34.24,28243
34.32,20145
34.4,12454
34.48,11202
34.56,10947
34.64,10855
34.72,10726
34.8,10667
34.88,10630
34.96,10666
35.04,10669
35.12,10644
35.2,10604
35.28,10681
35.36,10704
35.44,11051
35.52,12032
35.6,11990
35.68,11602
35.76,11055
35.84,10741
35.92,10587
36,10663
36.08,10588
36.16,10627
36.24,10590
36.32,10600
36.4,10644
36.48,10599
36.56,10502
36.64,10616
36.72,10623
36.8,10582
36.88,10546
36.96,10690
37.04,10760
37.12,10688
37.2,10700
37.28,10750
37.36,10969
37.44,11445
37.52,13791
37.6,14611
37.68,12987
37.76,11074
37.84,10891
37.92,10824
38,10838
38.08,11098
38.16,11897
38.24,15430
38.32,15616
38.4,13802
38.48,11351
38.56,10851
38.64,10791
38.72,10663
38.8,10641
38.88,10630
38.96,10643
39.04,10690
39.12,10652
39.2,10627
39.28,10603
39.36,10630
39.44,10593
39.52,10571
39.6,10598
39.68,10486
39.76,10597
39.84,10633
39.92,10631
40,10592
40.08,10546
40.16,10586
40.24,10586
40.32,10597
40.4,10617
40.48,10611
40.56,10602
40.64,10716
40.72,10592
40.8,10586
40.88,10660
40.96,10661
41.04,10721
41.12,10714
41.2,10886
41.28,11282
41.36,11079
41.44,10883
41.52,10826
41.6,10860
41.68,11074
41.76,11472
41.84,12920
41.92,15312
42,16458
42.08,13994
42.16,11572
42.24,10899
42.32,10793
42.4,10705
42.48,10687
42.56,10662
42.64,10653
42.72,10687
42.8,10568
42.88,10659
42.96,10582
43.04,10743
43.12,10730
43.2,10720
43.28,10650
43.36,10730
43.44,10670
43.52,10699
43.6,10706
43.68,10695
43.76,10766
43.84,10870
43.92,10887
44,11214
44.08,12895
44.16,17022
44.24,14698
44.32,13116
44.4,11154
44.48,10868
44.56,11016
44.64,11327
44.72,11092
44.8,10874
44.88,10748
44.96,10670
45.04,10608
45.12,10617
45.2,10693
45.28,10600
45.36,10690
45.44,10621
45.52,10663
45.6,10657
45.68,10676
45.76,10681
45.84,10764
45.92,10663
46,10949
46.08,11793
46.16,12732
46.24,12282
46.32,11547
46.4,11020
46.48,10726
46.56,10679
46.64,10655
46.72,10658
46.8,10634
46.88,10627
46.96,10634
47.04,10624
47.12,10692
47.2,10712
47.28,10669
47.36,10696
47.44,10763
47.52,10816
47.6,10721
47.68,10826
47.76,10991
47.84,10814
47.92,10761
48,10657
48.08,10641
48.16,10618
48.24,10648
48.32,10613
48.4,10687
48.48,10594
48.56,10615
48.64,10592
48.72,10560
48.8,10567
48.88,10698
48.96,10723
49.04,10630
49.12,10627
49.2,10665
49.28,10665
49.36,10667
49.44,10637
49.52,10679
49.6,10653
49.68,10655
49.76,10679
49.84,10612
49.92,10629
50,10707
50.08,10594
50.16,10670
50.24,10679
50.32,10752
50.4,10927
50.48,10976
50.56,10994
50.64,10900
50.72,11133
50.8,12038
50.88,13128
50.96,14751
51.04,13770
51.12,12831
51.2,11612
51.28,11281
51.36,11664
51.44,11355
51.52,11420
51.6,11990
51.68,11960
51.76,11623
51.84,11046
51.92,10717
52,10728
52.08,10668
52.16,10716
52.24,10719
52.32,10735
52.4,10772
52.48,10740
52.56,11046
52.64,11416
52.72,11096
52.8,10985
52.88,10704
52.96,10691
53.04,10624
53.12,10649
53.2,10632
53.28,10649
53.36,10664
53.44,10687
53.52,10726
53.6,10699
53.68,10659
53.76,10754
53.84,10806
53.92,10790
54,10751
54.08,10782
54.16,11075
54.24,11992
54.32,11538
54.4,11564
54.48,11447
54.56,11408
54.64,11597
54.72,11406
54.8,11085
54.88,11002
54.96,10701
55.04,10636
55.12,10686
55.2,10606
55.28,10641
55.36,10744
55.44,10660
55.52,10639
55.6,10794
55.68,10625
55.76,10629
55.84,10704
55.92,10687
56,10825
56.08,10857
56.16,10903
56.24,11010
56.32,11624
56.4,12714
56.48,11924
56.56,12102
56.64,11459
56.72,11536
56.8,12867
56.88,12344
56.96,11991
57.04,11483
57.12,10923
57.2,10814
57.28,10852
57.36,10797
57.44,11116
57.52,10995
57.6,11058
57.68,10879
57.76,10823
57.84,10832
57.92,10886
58,11115
58.08,11020
58.16,10935
58.24,10810
58.32,10750
58.4,10746
58.48,10754
58.56,10687
58.64,10713
58.72,10714
58.8,10773
58.88,10757
58.96,10803
59.04,10742
59.12,10880
59.2,11122
59.28,12024
59.36,12796
59.44,11779
59.52,11921
59.6,11014
59.68,10882
59.76,10820
59.84,10768
59.92,11001
60,10843
60.08,10807
60.16,10689
60.24,10756
60.32,10761
60.4,10787
60.48,10955
60.56,10868
60.64,10877
60.72,10831
60.8,10795
60.88,10863
60.96,10811
61.04,10722
61.12,10790
61.2,10637
61.28,10652
61.36,10778
61.44,10686
61.52,10743
61.6,10693
61.68,10753
61.76,10819
61.84,10730
61.92,10924
62,11500
62.08,12110
62.16,11527
62.24,11495
62.32,11257
62.4,11179
62.48,12110
62.56,13836
62.64,12409
62.72,12350
62.8,11604
62.88,10917
62.96,10882
63.04,11047
63.12,11230
63.2,11020
63.28,11052
63.36,10861
63.44,10776
63.52,10866
63.6,10781
63.68,10780
63.76,10729
63.84,10776
63.92,10730
64,10724
64.08,10724
64.16,10701
64.24,10742
64.32,10752
64.4,10541
64.48,10661
64.56,10669
64.64,10746
64.72,10883
64.8,11101
64.88,11096
64.96,11253
65.04,11443
65.12,12709
65.2,12646
65.28,11668
65.36,11911
65.44,10981
65.52,10801
65.6,10672
65.68,10706
65.76,10748
65.84,11002
65.92,10786
66,10777
66.08,10809
66.16,10783
66.24,10779
66.32,10738
66.4,10728
66.48,10698
66.56,10630
66.64,10747
66.72,10612
66.8,10695
66.88,10622
66.96,10701
67.04,10627
67.12,10581
67.2,10666
67.28,10704
67.36,10589
67.44,10711
67.52,10726
67.6,10709
67.68,10749
67.76,10684
67.84,10687
67.92,10731
68,10981
68.08,10979
68.16,10985
68.24,11258
68.32,11061
68.4,10828
68.48,10900
68.56,10669
68.64,10680
68.72,10634
68.8,10613
68.88,10656
68.96,10595
69.04,10635
69.12,10627
69.2,10607
69.28,10688
69.36,10675
69.44,10778
69.52,11253
69.6,11934
69.68,11693
69.76,11690
69.84,11829
69.92,11997
70,11543
70.08,11206
70.16,11303
70.24,10949
70.32,10783
70.4,10753
70.48,10829
70.56,10758
70.64,10903
70.72,10899
70.8,10706
70.88,10764
70.96,10840
71.04,11035
71.12,10946
71.2,10802
71.28,10786
71.36,10688
71.44,10631
71.52,10653
71.6,10600
71.68,10617
71.76,10639
71.84,10576
71.92,10724
72,10735
72.08,10650
72.16,10698
72.24,10914
72.32,11127
72.4,11196
72.48,11080
72.56,10987
72.64,10887
72.72,10944
72.8,11187
72.88,10994
72.96,10997
73.04,11398
73.12,11550
73.2,11110
73.28,11037
73.36,11022
73.44,10848
73.52,10890
73.6,10981
73.68,10961
73.76,10845
73.84,10920
73.92,10838
74,10810
74.08,10911
74.16,11506
74.24,12779
74.32,12675
74.4,11752
74.48,11990
74.56,11628
74.64,11154
74.72,11362
74.8,12549
74.88,13206
74.96,12241
75.04,12148
75.12,11985
75.2,11436
75.28,11007
75.36,10862
75.44,10859
75.52,10829
75.6,10845
75.68,10701
75.76,10664
75.84,10732
75.92,10652
76,10603
76.08,10560
76.16,10576
76.24,10652
76.32,10638
76.4,10646
76.48,10595
76.56,10603
76.64,10608
76.72,10637
76.8,10660
76.88,10638
76.96,10581
77.04,10637
77.12,10671
77.2,10942
77.28,11365
77.36,11669
77.44,11299
77.52,11158
77.6,11158
77.68,10833
77.76,10747
77.84,10845
77.92,10979
78,10873
78.08,11086
78.16,11181
78.24,10972
78.32,10920
78.4,10879
78.48,10751
78.56,10803
78.64,10695
78.72,10700
78.8,10680
78.88,10669
78.96,10579
79.04,10617
79.12,10586
79.2,10640
79.28,10638
79.36,10713
79.44,10699
79.52,10611
79.6,10749
79.68,10827
79.76,10640
79.84,10643
79.92,10676
80,10701
80.08,10760
80.16,10851
80.24,10831
80.32,10779
80.4,10756
80.48,10756
80.56,10697
80.64,10725
80.72,10682
80.8,10640
80.88,10644
80.96,10703
81.04,10677
81.12,10650
81.2,10617
81.28,10653
81.36,10678
81.44,10741
81.52,10874
81.6,11166
81.68,11897
81.76,12468
81.84,11884
81.92,12000
82,12141
82.08,11478
82.16,11274
82.24,11140
82.32,10921
82.4,10734
82.48,10798
82.56,10774
82.64,10883
82.72,10868
82.8,10715
82.88,10733
82.96,10788
83.04,10666
83.12,10647
83.2,10640
83.28,10663
83.36,10548
83.44,10628
83.52,10633
83.6,10648
83.68,10639
83.76,10674
83.84,10756
83.92,10667
84,10662
84.08,10704
84.16,10819
84.24,10737
84.32,10783
84.4,10824
84.48,10767
84.56,10813
84.64,10761
84.72,10729
84.8,10819
84.88,10845
84.96,10674
85.04,10743
85.12,10727
85.2,10704
85.28,10699
85.36,10588
85.44,10655
85.52,10670
85.6,10789
85.68,10764
85.76,10920
85.84,10764
85.92,10760
86,10762
86.08,10763
86.16,10724
86.24,10953
86.32,11219
86.4,10979
86.48,10853
86.56,10979
86.64,10946
86.72,10885
86.8,10995
86.88,11209
86.96,11026
87.04,10858
87.12,10967
87.2,10909
87.28,10698
87.36,10721
87.44,10773
87.52,10646
87.6,10671
87.68,10680
87.76,10687
87.84,10610
87.92,10648
88,10687
88.08,10656
88.16,10692
88.24,10581
88.32,10641
88.4,10634
88.48,10682
88.56,10672
88.64,10607
88.72,10563
88.8,10611
88.88,10646
88.96,10620
89.04,10650
89.12,10778
89.2,10654
89.28,10687
89.36,10825
89.44,11036
89.52,11620
89.6,11566
89.68,11147
89.76,11117
89.84,11229
89.92,11021
90,10730
90.08,10684
90.16,10611
90.24,10640
90.32,10569
90.4,10659
90.48,10699
90.56,10591
90.64,10665
90.72,10698
90.8,10641
90.88,10628
90.96,10740
91.04,10722
91.12,10733
91.2,10838
91.28,11078
91.36,11115
91.44,10868
91.52,10933
91.6,10928
91.68,10878
91.76,10731
91.84,10707
91.92,10818
92,10647
92.08,10650
92.16,10705
92.24,10741
92.32,10608
92.4,10708
92.48,10714
92.56,10694
92.64,10664
92.72,10651
92.8,10673
92.88,10754
92.96,10721
93.04,10677
93.12,10789
93.2,10785
93.28,10704
93.36,10693
93.44,10698
93.52,10593
93.6,10651
93.68,10637
93.76,10743
93.84,10637
93.92,10648
94,10575
94.08,10753
94.16,10780
94.24,10642
94.32,10580
94.4,10755
94.48,10851
94.56,10925
94.64,10757
94.72,10709
94.8,10800
94.88,10850
94.96,10756
95.04,10663
95.12,10631
95.2,10671
95.28,10726
95.36,10676
95.44,10707
95.52,10822
95.6,10800
95.68,10715
95.76,10664
95.84,10662
95.92,10688
96,10692
96.08,10650
96.16,10586
96.24,10687
96.32,10747
96.4,10810
96.48,10986
96.56,10787
96.64,10719
96.72,10826
96.8,10960
96.88,10865
96.96,10674
97.04,10836
97.12,10941
97.2,10807
97.28,10906
97.36,11082
97.44,11259
97.52,11266
97.6,10988
97.68,10900
97.76,11088
97.84,11169
97.92,11173
98,11045
98.08,10921
98.16,10945
98.24,11064
98.32,11384
98.4,11289
98.48,10984
98.56,10803
98.64,10937
98.72,10905
98.8,10829
98.88,10710
98.96,10722
99.04,10679
99.12,10601
99.2,10623
99.28,10625
99.36,10640
99.44,10600
99.52,10582
99.6,10586
99.68,10756
99.76,10696
99.84,10682
99.92,10620
100,10659
100.08,10715
100.16,10648
100.24,10679
100.32,10634
100.4,10621
100.48,10646
100.56,10650
100.64,10689
100.72,10634
100.8,10651
100.88,10648
100.96,10658
101.04,10637
101.12,10804
101.2,10759
101.28,10736
101.36,10814
101.44,10722
101.52,10705
101.6,10803
101.68,10699
101.76,10654
101.84,10610
101.92,10602
102,10649
102.08,10632
102.16,10654
102.24,10663
102.32,10665
102.4,10686
102.48,10600
102.56,10691
102.64,10770
102.72,10817
102.8,10915
102.88,11012
102.96,10979
103.04,10812
103.12,11033
103.2,11171
103.28,11209
103.36,10953
103.44,10915
103.52,10932
103.6,10917
103.68,10905
103.76,10823
103.84,10692
103.92,10709
104,10699
104.08,10662
104.16,10630
104.24,10618
104.32,10601
104.4,10652
104.48,10654
104.56,10645
104.64,10694
104.72,10679
104.8,10653
104.88,10642
104.96,10596
105.04,10685
105.12,10761
105.2,10852
105.28,10881
105.36,10866
105.44,10741
105.52,10754
105.6,10745
105.68,10815
105.76,10806
105.84,10727
105.92,10725
106,10724
106.08,10686
106.16,10662
106.24,10726
106.32,10739
106.4,10682
106.48,10825
106.56,10661
106.64,10721
106.72,10681
106.8,10775
106.88,10885
106.96,11050
107.04,10917
107.12,10896
107.2,10846
107.28,10827
107.36,10987
107.44,11173
107.52,11129
107.6,11110
107.68,11100
107.76,11175
107.84,11122
107.92,11043
108,11179
108.08,11153
108.16,11120
108.24,11040
108.32,10925
108.4,11044
108.48,11031
108.56,11040
108.64,10942
108.72,10833
108.8,10932
108.88,10819
108.96,10777
109.04,10778
109.12,10807
109.2,10738
109.28,10640
109.36,10666
109.44,10740
109.52,10721
109.6,10876
109.68,11003
109.76,11017
109.84,11024
109.92,10793
110,10833
110.08,10853
110.16,11020
110.24,11039
110.32,11033
110.4,10957
110.48,10815
110.56,10777
110.64,10838
110.72,10937
110.8,10907
110.88,10814
110.96,10807
111.04,10928
111.12,10997
111.2,11115
111.28,11177
111.36,11078
111.44,11106
111.52,11073
111.6,10886
111.68,11003
111.76,10811
111.84,10833
111.92,10804
112,10716
112.08,10665
112.16,10685
112.24,10636
112.32,10678
112.4,10663
112.48,10729
112.56,10750
112.64,10822
112.72,11000
112.8,11179
112.88,11060
112.96,10837
113.04,10858
113.12,10881
113.2,10958
113.28,10847
113.36,10798
113.44,10830
113.52,10682
113.6,10746
113.68,10726
113.76,10852
113.84,10824
113.92,10966
114,11107
114.08,11093
114.16,11089
114.24,11156
114.32,11252
114.4,11145
114.48,11152
114.56,11003
114.64,11053
114.72,11259
114.8,11572
114.88,11922
114.96,11889
115.04,11605
115.12,11380
115.2,11287
115.28,11395
115.36,11320
115.44,11338
115.52,11130
115.6,10931
115.68,10803
115.76,10788
115.84,10777
115.92,10812
116,10828
116.08,10723
116.16,10782
116.24,10740
116.32,10756
116.4,10684
116.48,10725
116.56,10698
116.64,10703
116.72,10624
116.8,10762
116.88,10718
116.96,10744
117.04,10727
117.12,10745
117.2,10762
117.28,10813
117.36,10802
117.44,10755
117.52,10759
117.6,10715
117.68,10674
117.76,10731
117.84,10738
117.92,10769
118,10705
118.08,10599
118.16,10722
118.24,10651
118.32,10675
118.4,10757
118.48,10794
118.56,10829
118.64,10822
118.72,10862
118.8,10808
118.88,10787
118.96,10742
119.04,10750
119.12,10794
119.2,10732
119.28,10710
119.36,10729
119.44,10655
119.52,10749
119.6,10667
119.68,10656
119.76,10705
119.84,10813
119.92,10945
120,10997
120.08,10905
120.16,10817
120.24,10837
120.32,10778
120.4,10715
120.48,10735
120.56,10772
120.64,10785
120.72,10676
120.8,10652
120.88,10673
120.96,10703
121.04,10722
121.12,10800
121.2,10834
121.28,10824
121.36,10971
121.44,10995
121.52,10987
121.6,10988
121.68,10894
121.76,10778
121.84,10885
121.92,10795
122,10771
122.08,10735
122.16,10654
122.24,10584
122.32,10618
122.4,10611
122.48,10610
122.56,10543
122.64,10579
122.72,10598
122.76,10541