File: data/xrd_icdd_PDF/00-068-0088 (PD3).csv
10,369
10.08,437
10.16,414
10.24,424
10.32,467
10.4,477
10.48,413
10.56,382
10.64,411
10.72,393
10.8,408
10.88,418
10.96,416
11.04,337
11.12,430
11.2,427
11.28,409
11.36,425
11.44,383
11.52,414
11.6,400
11.68,401
11.76,420
11.84,385
11.92,387
12,364
12.08,367
12.16,337
12.24,373
12.32,387
12.4,310
12.48,355
12.56,376
12.64,338
12.72,337
12.8,341
12.88,290
12.96,341
13.04,319
13.12,357
13.2,361
13.28,350
13.36,315
13.44,312
13.52,293
13.6,280
13.68,266
13.76,258
13.84,280
13.92,267
14,306
14.08,287
14.16,257
14.24,231
14.32,269
14.4,226
14.48,273
14.56,247
14.64,266
14.72,234
14.8,249
14.88,284
14.96,289
15.04,250
15.12,208
15.2,222
15.28,211
15.36,256
15.44,225
15.52,228
15.6,212
15.68,265
15.76,204
15.84,182
15.92,221
16,209
16.08,185
16.16,226
16.24,209
16.32,223
16.4,175
16.48,213
16.56,196
16.64,199
16.72,224
16.8,204
16.88,212
16.96,236
17.04,256
17.12,307
17.2,418
17.28,514
17.36,688
17.44,396
17.52,251
17.6,215
17.68,222
17.76,204
17.84,229
17.92,206
18,194
18.08,196
18.16,211
18.24,203
18.32,215
18.4,202
18.48,196
18.56,182
18.64,211
18.72,209
18.8,168
18.88,200
18.96,195
19.04,186
19.12,207
19.2,215
19.28,201
19.36,218
19.44,215
19.52,258
19.6,246
19.68,225
19.76,220
19.84,245
19.92,202
20,257
20.08,282
20.16,264
20.24,219
20.32,246
20.4,237
20.48,231
20.56,245
20.64,269
20.72,226
20.8,261
20.88,257
20.96,233
21.04,265
21.12,275
21.2,276
21.28,267
21.36,257
21.44,290
21.52,299
21.6,272
21.68,314
21.76,285
21.84,337
21.92,303
22,320
22.08,328
22.16,286
22.24,338
22.32,323
22.4,371
22.48,375
22.56,338
22.64,348
22.72,429
22.8,355
22.88,354
22.96,372
23.04,380
23.12,382
23.2,397
23.28,430
23.36,415
23.44,404
23.52,466
23.6,427
23.68,440
23.76,443
23.84,457
23.92,466
24,485
24.08,458
24.16,508
24.24,491
24.32,526
24.4,534
24.48,574
24.56,545
24.64,530
24.72,526
24.8,559
24.88,625
24.96,608
25.04,626
25.12,635
25.2,640
25.28,725
25.36,690
25.44,743
25.52,742
25.6,721
25.68,742
25.76,754
25.84,797
25.92,877
26,895
26.08,1115
26.16,1312
26.24,1853
26.32,2890
26.4,5330
26.48,10114
26.56,13924
26.64,7061
26.72,2116
26.8,1393
26.88,1152
26.96,1081
27.04,1040
27.12,940
27.2,985
27.28,989
27.36,960
27.44,937
27.52,936
27.6,888
27.68,861
27.76,860
27.84,1036
27.92,1286
28,1528
28.08,2360
28.16,2165
28.24,1350
28.32,969
28.4,853
28.48,816
28.56,859
28.64,881
28.72,825
28.8,847
28.88,810
28.96,869
29.04,793
29.12,779
29.2,787
29.28,704
29.36,723
29.44,724
29.52,747
29.6,761
29.68,789
29.76,732
29.84,719
29.92,694
30,663
30.08,729
30.16,676
30.24,748
30.32,617
30.4,597
30.48,625
30.56,671
30.64,659
30.72,693
30.8,619
30.88,642
30.96,626
31.04,655
31.12,610
31.2,601
31.28,654
31.36,630
31.44,622
31.52,711
31.6,807
31.68,961
31.76,1432
31.84,2601
31.92,4775
32,5278
32.08,2992
32.16,1212
32.24,789
32.32,695
32.4,580
32.48,536
32.56,574
32.64,478
32.72,491
32.8,479
32.88,452
32.96,461
33.04,474
33.12,451
33.2,413
33.28,452
33.36,454
33.44,413
33.52,431
33.6,418
33.68,417
33.76,412
33.84,390
33.92,396
34,387
34.08,349
34.16,361
34.24,379
34.32,302
34.4,369
34.48,358
34.56,352
34.64,372
34.72,310
34.8,319
34.88,389
34.96,326
35.04,395
35.12,378
35.2,339
35.28,321
35.36,313
35.44,269
35.52,311
35.6,279
35.68,321
35.76,243
35.84,265
35.92,281
36,271
36.08,325
36.16,345
36.24,356
36.32,345
36.4,364
36.48,419
36.56,480
36.64,453
36.72,323
36.8,281
36.88,259
36.96,245
37.04,232
37.12,215
37.2,199
37.28,232
37.36,237
37.44,233
37.52,209
37.6,237
37.68,225
37.76,240
37.84,207
37.92,207
38,240
38.08,161
38.16,206
38.24,182
38.32,189
38.4,188
38.48,186
38.56,211
38.64,216
38.72,184
38.8,197
38.88,205
38.96,192
39.04,212
39.12,150
39.2,210
39.28,203
39.36,219
39.44,225
39.52,205
39.6,235
39.68,176
39.76,185
39.84,154
39.92,187
40,187
40.08,201
40.16,180
40.24,172
40.32,222
40.4,208
40.48,232
40.56,212
40.64,189
40.72,202
40.8,199
40.88,218
40.96,210
41.04,231
41.12,185
41.2,210
41.28,240
41.36,252
41.44,211
41.52,252
41.6,234
41.68,257
41.76,248
41.84,299
41.92,291
42,286
42.08,253
42.16,248
42.24,250
42.32,263
42.4,253
42.48,300
42.56,322
42.64,352
42.72,453
42.8,570
42.88,1139
42.96,2213
43.04,3223
43.12,2332
43.2,1354
43.28,634
43.36,442
43.44,386
43.52,365
43.6,338
43.68,352
43.76,311
43.84,283
43.92,248
44,279
44.08,271
44.16,272
44.24,275
44.32,282
44.4,296
44.48,302
44.56,300
44.64,254
44.72,271
44.8,270
44.88,257
44.96,310
45.04,324
45.12,291
45.2,320
45.28,326
45.36,323
45.44,410
45.52,494
45.6,706
45.68,1291
45.76,2276
45.84,2133
45.92,1565
46,820
46.08,445
46.16,411
46.24,338
46.32,315
46.4,339
46.48,309
46.56,345
46.64,292
46.72,283
46.8,319
46.88,299
46.96,326
47.04,338
47.12,333
47.2,297
47.28,312
47.36,286
47.44,298
47.52,308
47.6,301
47.68,328
47.76,301
47.84,347
47.92,332
48,362
48.08,306
48.16,309
48.24,362
48.32,353
48.4,445
48.48,471
48.56,673
48.64,1208
48.72,1788
48.8,1381
48.88,1006
48.96,653
49.04,472
49.12,333
49.2,387
49.28,340
49.36,358
49.44,323
49.52,325
49.6,341
49.68,309
49.76,321
49.84,305
49.92,319
50,342
50.08,313
50.16,310
50.24,378
50.32,322
50.4,295
50.48,337
50.56,303
50.64,265
50.72,314
50.8,297
50.88,314
50.96,316
51.04,340
51.12,387
51.2,354
51.28,344
51.36,320
51.44,326
51.52,310
51.6,291
51.68,295
51.76,279
51.84,330
51.92,304
52,297
52.08,350
52.16,275
52.24,282
52.32,351
52.4,310
52.48,350
52.56,314
52.64,337
52.72,291
52.8,358
52.88,301
52.96,350
53.04,384
53.12,381
53.2,423
53.28,507
53.36,651
53.44,859
53.52,1716
53.6,3189
53.68,4035
53.76,3157
53.84,2435
53.92,1241
54,761
54.08,588
54.16,500
54.24,487
54.32,555
54.4,854
54.48,1356
54.56,1676
54.64,1348
54.72,1112
54.8,660
54.88,447
54.96,374
55.04,326
55.12,275
55.2,294
55.28,318
55.36,296
55.44,281
55.52,287
55.6,254
55.68,265
55.76,244
55.84,274
55.92,238
56,274
56.08,278
56.16,218
56.24,287
56.32,238
56.4,224
56.48,220
56.56,240
56.64,231
56.72,194
56.8,191
56.88,220
56.96,240
57.04,244
57.12,238
57.2,205
57.28,181
57.36,263
57.44,248
57.52,261
57.6,201
57.68,233
57.76,236
57.84,215
57.92,270
58,354
58.08,344
58.16,275
58.24,279
58.32,232
58.4,213
58.48,200
58.56,206
58.64,211
58.72,174
58.8,215
58.88,223
58.96,168
59.04,216
59.12,186
59.2,199
59.28,218
59.36,226
59.44,185
59.52,209
59.6,190
59.68,204
59.76,257
59.84,207
59.92,238
60,240
60.08,219
60.16,242
60.24,198
60.32,240
60.4,178
60.48,211
60.56,169
60.64,187
60.72,194
60.8,213
60.88,181
60.96,172
61.04,154
61.12,164
61.2,207
61.28,159
61.36,121
61.44,170
61.52,189
61.6,221
61.68,182
61.76,214
61.84,197
61.92,172
62,204
62.08,159
62.16,183
62.24,173
62.32,170
62.4,143
62.48,169
62.56,138
62.64,185
62.72,202
62.8,190
62.88,195
62.96,171
63.04,188
63.12,187
63.2,203
63.28,208
63.36,163
63.44,161
63.52,185
63.6,185
63.68,176
63.76,192
63.84,187
63.92,190
64,152
64.08,158
64.16,159
64.24,176
64.32,188
64.4,135
64.48,167
64.56,175
64.64,181
64.72,135
64.8,170
64.88,172
64.96,170
65.04,151
65.12,161
65.2,163
65.28,149
65.36,156
65.44,161
65.52,161
65.6,154
65.68,182
65.76,162
65.84,142
65.92,148
66,187
66.08,158
66.16,180
66.24,173
66.32,179
66.4,230
66.48,254
66.56,351
66.64,587
66.72,672
66.8,527
66.88,446
66.96,400
67.04,304
67.12,234
67.2,241
67.28,222
67.36,218
67.44,250
67.52,318
67.6,414
67.68,566
67.76,551
67.84,486
67.92,463
68,301
68.08,217
68.16,210
68.24,194
68.32,187
68.4,220
68.48,172
68.56,239
68.64,214
68.72,269
68.8,354
68.88,558
68.96,956
69.04,1121
69.12,874
69.2,812
69.28,604
69.36,366
69.44,277
69.52,232
69.6,187
69.68,201
69.76,141
69.84,178
69.92,164
70,147
70.08,147
70.16,140
70.24,147
70.32,150
70.4,138
70.48,140
70.56,152
70.64,120
70.72,148
70.8,154
70.88,137
70.96,164
71.04,139
71.12,130
71.2,142
71.28,151
71.36,152
71.44,111
71.52,125
71.6,148
71.68,141
71.76,114
71.84,129
71.92,116
72,151
72.08,137
72.16,133
72.24,133
72.32,168
72.4,157
72.48,162
72.56,157
72.64,173
72.72,178
72.8,217
72.88,296
72.96,484
73.04,772
73.12,827
73.2,649
73.28,550
73.36,440
73.44,347
73.52,289
73.6,252
73.68,321
73.76,513
73.84,628
73.92,567
74,469
74.08,397
74.16,300
74.24,184
74.32,192
74.4,146
74.48,152
74.56,141
74.64,130
74.72,124
74.8,117
74.88,134
74.96,154
75.04,156
75.12,144
75.2,151
75.28,154
75.36,154
75.44,163
75.52,187
75.6,284
75.68,370
75.76,708
75.84,776
75.92,596
76,608
76.08,494
76.16,371
76.24,254
76.32,202
76.4,174
76.48,171
76.56,185
76.64,191
76.72,306
76.8,382
76.88,318
76.96,326
77.04,296
77.12,211
77.2,165
77.28,167
77.36,126
77.44,124
77.52,146
77.6,116
77.68,92
77.76,98
77.84,109
77.92,83
78,97
78.08,120
78.16,116
78.24,107
78.32,148
78.4,131
78.48,81
78.56,103
78.64,117
78.72,161
78.8,162
78.88,201
78.96,292
79.04,321
79.12,232
79.2,237
79.28,196
79.36,154
79.44,165
79.52,94
79.6,104
79.68,90
79.76,76
79.84,101
79.92,106
80,104
80.08,63
80.16,105
80.24,96
80.32,83
80.4,104
80.48,73
80.56,96
80.64,111
80.72,119
80.8,101
80.88,114
80.96,80
81.04,94
81.12,88
81.2,109
81.28,110
81.36,94
81.44,97
81.52,100
81.6,116
81.68,110
81.76,89
81.84,130
81.92,81
82,126
82.08,122
82.16,141
82.24,145
82.32,184
82.4,171
82.48,259
82.56,516
82.64,727
82.72,628
82.8,520
82.88,511
82.96,444
83.04,315
83.12,196
83.2,121
83.28,144
83.36,131
83.44,126
83.52,76
83.6,81
83.68,72
83.76,101
83.84,72
83.92,92
84,68
84.08,58
84.16,81
84.24,72
84.32,85
84.4,76
84.48,63
84.56,88
84.64,67
84.72,71
84.8,71
84.88,104
84.96,67
85.04,54
85.12,68
85.2,107
85.28,83
85.36,63
85.44,77
85.52,77
85.6,70
85.68,72
85.76,86
85.84,62
85.92,84
86,70
86.08,52
86.16,90
86.24,92
86.32,103
86.4,100
86.48,107
86.56,141
86.64,189
86.72,263
86.8,242
86.88,232
86.96,216
87.04,210
87.12,189
87.2,161
87.28,98
87.36,124
87.44,105
87.52,71
87.6,64
87.68,87
87.76,47
87.84,66
87.92,77
88,85
88.08,67
88.16,81
88.24,50
88.32,68
88.4,69
88.48,91
88.56,45
88.64,70
88.72,101
88.8,61
88.88,70
88.96,53
89.04,69
89.12,55
89.2,83
89.28,80
89.36,77
89.44,78
89.52,79
89.6,86
89.68,86
89.76,67
89.84,113
89.92,67
90,113
90.08,102
90.16,121
90.24,145
90.32,203
90.4,251
90.48,425
90.56,528
90.64,593
90.72,531
90.8,468
90.88,429
90.96,308
91.04,308
91.12,178
91.2,153
91.28,116
91.36,98
91.44,64
91.52,91
91.6,90
91.68,84
91.76,83
91.84,82
91.92,58
92,92
92.08,42
92.16,84
92.24,53
92.32,60
92.4,62
92.48,60
92.56,83
92.64,79
92.72,61
92.8,75
92.88,68
92.96,93
93.04,90
93.12,111
93.2,95
93.28,85
93.36,95
93.44,69
93.52,58
93.6,81
93.68,57
93.76,98
93.84,97
93.92,112
94,111
94.08,155
94.16,197
94.24,184
94.32,163
94.4,154
94.48,131
94.56,150
94.64,120
94.72,106
94.8,126
94.88,57
94.96,79
95.04,46
95.12,75
95.2,64
95.28,77
95.36,66
95.44,90
95.52,70
95.6,53
95.68,88
95.76,73
95.84,114
95.92,112
96,130
96.08,101
96.16,155
96.24,202
96.32,268
96.4,239
96.48,230
96.56,195
96.64,191
96.72,172
96.8,141
96.88,116
96.96,106
97.04,101
97.12,117
97.2,107
97.28,92
97.36,81
97.44,50
97.52,70
97.6,71
97.68,39
97.76,56
97.84,65
97.92,54
98,25
98.08,55
98.16,66
98.24,39
98.32,46
98.4,88
98.48,52
98.56,61
98.64,54
98.72,56
98.8,64
98.88,52
98.96,77
99.04,50
99.12,65
99.2,80
99.28,51
99.36,65
99.44,60
99.52,62
99.6,70
99.68,57
99.76,83
99.84,48
99.92,66
100,64
100.08,79
100.16,46
100.24,57
100.32,54
100.4,53
100.48,55
100.56,69
100.64,57
100.72,70
100.8,59
100.88,81
100.96,77
101.04,73
101.12,77
101.2,66
101.28,91
101.36,66
101.44,90
101.52,84
101.6,110
101.68,117
101.76,152
101.84,193
101.92,234
102,212
102.08,214
102.16,165
102.24,212
102.32,178
102.4,171
102.48,125
102.56,117
102.64,167
102.72,179
102.8,177
102.88,312
102.96,277
103.04,272
103.12,215
103.2,190
103.28,221
103.36,175
103.44,152
103.52,152
103.6,123
103.68,150
103.76,151
103.84,109
103.92,156
104,202
104.08,293
104.16,331
104.24,317
104.32,311
104.4,259
104.48,211
104.56,233
104.64,181
104.72,159
104.8,103
104.88,90
104.96,95
105.04,89
105.12,71
105.2,85
105.28,58
105.36,60
105.44,34
105.52,73
105.6,54
105.68,69
105.76,65
105.84,57
105.92,43
106,68
106.08,58
106.16,50
106.24,81
106.32,65
106.4,54
106.48,55
106.56,72
106.64,45
106.72,33
106.8,97
106.88,43
106.96,63
107.04,55
107.12,71
107.2,73
107.28,89
107.36,56
107.44,84
107.52,90
107.6,100
107.68,97
107.76,138
107.84,121
107.92,177
108,190
108.08,354
108.16,376
108.24,397
108.32,325
108.4,304
108.48,330
108.56,285
108.64,291
108.72,257
108.8,226
108.88,276
108.96,260
109.04,268
109.12,208
109.2,171
109.28,178
109.36,166
109.44,138
109.52,150
109.6,86
109.68,70
109.76,58
109.84,68
109.92,99
110,75