File: data/xrd_icdd_PDF/00-058-0850 (PD3).csv
9.2808,362.943
9.3968,536.6313
9.5128,498.604
9.6288,404.601
9.7448,433.672
9.8608,411.554
9.9768,426.709
10.0928,410.533
10.2088,390.267
10.3248,486.126
10.4408,477.26
10.5568,549.465
10.6728,477.777
10.7888,455.368
10.9048,339.64
11.0208,471.225
11.1368,461.361
11.2528,447.16
11.3688,506.305
11.4848,499.267
11.6008,456.946
11.7168,578.137
11.8328,505.543
11.9488,535.897
12.0648,584.973
12.1808,501.319
12.2968,558.975
12.4128,557.182
12.5288,533.7712
12.6448,500.136
12.7608,675.599
12.8768,620.227
12.9928,606.328
13.1088,653.266
13.2248,686.124
13.3408,632.15
13.4568,648.869
13.5728,701.374
13.6888,623.177
13.8048,639.095
13.9208,815.653
14.0368,1374.64
14.1528,862.507
14.2688,701.948
14.3848,649.26
14.5008,687.286
14.6168,649.4399
14.7328,650.38
14.8488,691.784
14.9648,642.3859
15.0808,642.93
15.1968,732.094
15.3128,663.242
15.4288,638.851
15.5448,703.594
15.6608,534.8413
15.7768,682.218
15.8928,758.413
16.0088,693.009
16.1248,611.668
16.2408,798.804
16.3568,758.629
16.4728,712.517
16.5888,739.395
16.7048,722.831
16.8208,803.306
16.9368,735.443
17.0528,731.318
17.1688,694.293
17.2848,844.512
17.4008,757.815
17.5168,776.136
17.6328,833.492
17.7488,841.279
17.8648,842.977
17.9808,743.003
18.0968,793.989
18.2128,827.824
18.3288,800.199
18.4448,898.8649
18.5608,806.104
18.6768,813.71
18.7928,794.591
18.9088,726.528
19.0248,830.34
19.1408,903.071
19.2568,847.441
19.3728,842.957
19.4888,827.219
19.6048,1037.46
19.7208,902.644
19.8368,835.11
19.9528,937.62
20.0688,869.409
20.1848,891.64
20.3008,880.814
20.4168,835.266
20.5328,838.864
20.6488,854.949
20.7648,854.825
20.8808,953.823
20.9968,1032.74
21.1128,855.566
21.2288,893.285
21.3448,955.048
21.4608,943.205
21.5768,908.351
21.6928,868.815
21.8088,874.507
21.9248,910.023
22.0408,912.011
22.1568,879.471
22.2728,827.899
22.3888,882.611
22.5048,931.684
22.6208,819.433
22.7368,772.543
22.8528,868.505
22.9688,926.288
23.0848,901.214
23.2008,974.427
23.3168,887.485
23.4328,861.5383
23.5488,986.023
23.6648,1044.53
23.7808,1045.02
23.8968,3786.83
24.0128,8490.5
24.1288,1443.3
24.2448,896.455
24.3608,878.652
24.4768,919.752
24.5928,893.957
24.7088,830.053
24.8248,786.991
24.9408,722.431
25.0568,815.709
25.1728,776.908
25.2888,811.651
25.4048,886.464
25.5208,841.715
25.6368,769.1145
25.7528,887.676
25.8688,782.283
25.9848,777.688
26.1008,762.842
26.2168,791.118
26.3328,724.163
26.4488,616.689
26.5648,764.705
26.6808,778.23
26.7968,793.422
26.9128,811.713
27.0288,792.662
27.1448,805.691
27.2608,892.556
27.3768,985.111
27.4928,909.2875
27.6088,962.408
27.7248,916.364
27.8408,929.785
27.9568,1048.15
28.0728,1165.01
28.1888,2406.41
28.3048,5602.47
28.4208,1625.89
28.5368,1201.18
28.6528,1081.41
28.7688,1140.34
28.8848,1169.88
29.0008,1317.76
29.1168,1223.96
29.2328,1209.67
29.3488,1080.71
29.4648,1113.7
29.5808,1239.28
29.6968,1107.53
29.8128,1470.71
29.9288,1428.63
30.0448,1334.9
30.1608,1328.22
30.2768,1390.15
30.3928,1420.39
30.5088,1680.24
30.6248,1444.13
30.7408,1608.08
30.8568,1728.91
30.9728,1913.37
31.0888,2291.28
31.2048,3732.32
31.3208,32984
31.4368,20368.2
31.5528,2844.07
31.6688,1925.25
31.7848,1504.2
31.9008,1369.49
32.0168,1406.68
32.1328,1661.54
32.2488,1683.97
32.3648,1651.22
32.4808,3474.95
32.5968,24914.3
32.7128,11899.2
32.8288,2032.2
32.9448,1624.81
33.0608,1369.33
33.1768,1352.3
33.2928,1284.62
33.4088,1220.98
33.5248,1272.69
33.6408,1300.41
33.7568,1117.87
33.8728,1026.56
33.9888,1140.73
34.1048,1075.39
34.2208,1226.4
34.3368,970.064
34.4528,1001.68
34.5688,1056.72
34.6848,923.223
34.8008,935.278
34.9168,948.929
35.0328,843.495
35.1488,750.528
35.2648,847.289
35.3808,795.8147
35.4968,803.064
35.6128,1040.68
35.7288,1132.37
35.8448,857.051
35.9608,859.373
36.0768,745.81
36.1928,873.395
36.3088,773.513
36.4248,585.5464
36.5408,814.151
36.6568,738.843
36.7728,802.359
36.8888,782.161
37.0048,698.849
37.1208,766.663
37.2368,708.2943
37.3528,772.672
37.4688,776.166
37.5848,728.479
37.7008,675.23
37.8168,800.751
37.9328,697.683
38.0488,765.238
38.1648,763.638
38.2808,686.448
38.3968,724.972
38.5128,729.554
38.6288,784.191
38.7448,767.018
38.8608,733.5412
38.9768,839.065
39.0928,814.721
39.2088,739.76
39.3248,948.163
39.4408,824.94
39.5568,757.242
39.6728,823.7827
39.7888,753.325
39.9048,825.4983
40.0208,902.301
40.1368,1013.36
40.2528,859.849
40.3688,996.913
40.4848,814.871
40.6008,891.825
40.7168,986.01
40.8328,1035.76
40.9488,1054.81
41.0648,887.368
41.1808,1112.6
41.2968,1018.13
41.4128,844.376
41.5288,1049.33
41.6448,974.238
41.7608,1105.33
41.8768,1160.63
41.9928,1108.53
42.1088,1231.9
42.2248,1184.36
42.3408,1174.9
42.4568,1330.91
42.5728,1514.26
42.6888,6703.513
42.8048,6416.51
42.9208,3242.66
43.0368,5025.01
43.1528,1661.85
43.2688,1340.93
43.3848,1412.76
43.5008,1473.24
43.6168,4681.32
43.7328,13480.7
43.8488,3075.58
43.9648,1357.27
44.0808,1271.12
44.1968,1076.51
44.3128,1150.38
44.4288,1055.11
44.5448,1149.29
44.6608,1004.75
44.7768,1295.08
44.8928,1026.91
45.0088,1149
45.1248,1131.56
45.2408,1125.23
45.3568,1064.72
45.4728,1043.47
45.5888,1022.22
45.7048,1024.23
45.8208,1088.7
45.9368,1087.39
46.0528,1127.36
46.1688,1177.77
46.2848,1106.83
46.4008,1119.36
46.5168,1346.3
46.6328,1705.21
46.7488,10747.6
46.8648,12996
46.9808,2377.48
47.0968,1596.59
47.2128,1240.84
47.3288,1149.4
47.4448,1141.5
47.5608,1069.99
47.6768,902.471
47.7928,1114.69
47.9088,969.624
48.0248,956.312
48.1408,888.293
48.2568,870.434
48.3728,852.352
48.4888,952.683
48.6048,812.364
48.7208,907.289
48.8368,808.334
48.9528,893.478
49.0688,952.857
49.1848,850.252
49.3008,838.082
49.4168,794.746
49.5328,873.4347
49.6488,916.509
49.7648,881.923
49.8808,817.068
49.9968,854.7057
50.1128,856.628
50.2288,850.842
50.3448,789.241
50.4608,749.685
50.5768,778.967
50.6928,760.143
50.8088,820.042
50.9248,833.642
51.0408,898.279
51.1568,801.749
51.2728,819.325
51.3888,758.161
51.5048,868.704
51.6208,817.298
51.7368,751.382
51.8528,915.986
51.9688,1011.2
52.0848,950.024
52.2008,854.4669
52.3168,945.56
52.4328,915.18
52.5488,858.802
52.6648,901.742
52.7808,953.913
52.8968,1066.33
53.0128,1072.65
53.1288,1266.01
53.2448,3121.46
53.3608,2118.82
53.4768,1103.9
53.5928,1113.02
53.7088,1080.22
53.8248,1167.71
53.9408,1214.93
54.0568,1138.11
54.1728,1313.33
54.2888,993.274
54.4048,1415.06
54.5208,1396.81
54.6368,1656.26
54.7528,1780.36
54.8688,2152.58
54.9848,6472.99
55.1008,3986.27
55.2168,1404.41
55.3328,1441.44
55.4488,1622.61
55.5648,3922.12
55.6808,3045.42
55.7968,1324.21
55.9128,1371.5
56.0288,1407.16
56.1448,2343.5
56.2608,6128.4
56.3768,2854.65
56.4928,1410.08
56.6088,1291.46
56.7248,1411.19
56.8408,1321.46
56.9568,1327.41
57.0728,1449.35
57.1888,1793.65
57.3048,4533.52
57.4208,18218.1
57.5368,7369.359
57.6528,1731.61
57.7688,1301.98
57.8848,1308.2
58.0008,1321.39
58.1168,1090.33
58.2328,1244.63
58.3488,1276.16
58.4648,2249.565
58.5808,2490.34
58.6968,1198.09
58.8128,1031.44
58.9288,1000.91
59.0448,1105.82
59.1608,959.461
59.2768,1072.27
59.3928,1013.34
59.5088,883.913
59.6248,1041.75
59.7408,904.005
59.8568,857.628
59.9728,957.746
60.0888,829.752
60.2048,945.31
60.3208,989.9379
60.4368,950.814
60.5528,936.112
60.6688,821.38
60.7848,978.129
60.9008,979.6
61.0168,990.286
61.1328,971.2551
61.2488,1027.13
61.3648,737.001
61.4808,824.749
61.5968,804.638
61.7128,852.038
61.8288,935.819
61.9448,815.305
62.0608,832.004
62.1768,819.776
62.2928,818.904
62.4088,918.78
62.5248,833.04
62.6408,927.108
62.7568,806.8
62.8728,905.965
62.9888,878.394
63.1048,860.616
63.2208,929.89
63.3368,918.054
63.4528,890.0821
63.5688,919.067
63.6848,888.836
63.8008,1066.64
63.9168,895.128
64.0328,875.677
64.1488,916.533
64.2648,840.145
64.3808,915.738
64.4968,944.263
64.6128,1006.87
64.7288,1003.92
64.8448,981.928
64.9608,1215.05
65.0768,1227.8
65.1928,3808.24
65.3088,4048.93
65.4248,4693.32
65.5408,2722.88
65.6568,1219.14
65.7728,1187.47
65.8888,1025.1
66.0048,936.137
66.1208,1095.29
66.2368,928.104
66.3528,958.535
66.4688,957.978
66.5848,941.827
66.7008,936.734
66.8168,1023.46
66.9328,1095.47
67.0488,992.961
67.1648,1092.92
67.2808,947.695
67.3968,932.214
67.5128,1044.03
67.6288,935.803
67.7448,1006.75
67.8608,1059.59
67.9768,1113.11
68.0928,1288.36
68.2088,1767.53
68.3248,4598.34
68.4408,3442.93
68.5568,3162.89
68.6728,3784.89
68.7888,1398.17
68.9048,1094.174
69.0208,973.424
69.1368,915.1461
69.2528,1053.81
69.3688,839.753
69.4848,954.475
69.6008,739.8
69.7168,862.07
69.8328,896.8697
69.9488,846.496
70.0648,835.71
70.1808,946.661
70.2968,829.188
70.4128,990.021
70.5288,863.003
70.6448,823.471
70.7608,765.539
70.8768,802.142
70.9928,906.8
71.1088,726.071
71.2248,896.309
71.3408,777.756
71.4568,918.2911
71.5728,1032.5
71.6888,898.219
71.8048,1024.85
71.9208,784.538
72.0368,794.74
72.1528,959.712
72.2688,1009.31
72.3848,871.279
72.5008,843.156
72.6168,885.702
72.7328,836.365
72.8488,1026.71
72.9648,912.795
73.0808,758.31
73.1968,950.694
73.3128,1031.7
73.4288,827.419
73.5448,1268.02
73.6608,1124.1
73.7768,878.134
73.8928,810.593
74.0088,1029.75
74.1248,1017.68
74.2408,885.167
74.3568,848.006
74.4728,854.729
74.5888,882.685
74.7048,989.598
74.8208,917.573
74.9368,910.409
75.0528,949.193
75.1688,922.136
75.2848,1383.14
75.4008,1299.37
75.5168,1810.46
75.6328,1774.19
75.7488,1111.04
75.8648,1281.96
75.9808,1406.36
76.0968,3891.06
76.2128,3013.92
76.3288,1273.45
76.4448,1147.56
76.5608,1012.12
76.6768,1009.78
76.7928,1074.03
76.9088,1096.02
77.0248,2268.2
77.1408,3871.25
77.2568,1959.84
77.3728,1237.93
77.4888,1252.79
77.6048,1432.96
77.7208,2517.95
77.8368,4642.19
77.9528,2729.44
78.0688,3859.15
78.1848,2474.69
78.3008,1229.41
78.4168,1089.5
78.5328,1062.26
78.6488,1016.46
78.7648,932.719
78.8808,1024.11
78.9968,853.513
79.1128,900.907
79.2288,933.31
79.3448,976.557
79.4608,912.9647
79.5768,891.238
79.6928,892.376
79.8088,947.535
79.9248,964.116
80.0408,910.876
80.1568,925.384
80.2728,895.6793
80.3888,862.107
80.5048,864.904
80.6208,911.481
80.7368,947.699
80.8528,916.5441
80.9688,816.277
81.0848,840.2037
81.2008,823.995
81.3168,888.258
81.4328,857.294
81.5488,858.38
81.6648,766.528
81.7808,906.645
81.8968,688.956
82.0128,904.251
82.1288,813.42
82.2448,870.558
82.3608,974.8134
82.4768,839.1177
82.5928,836.604
82.7088,755.463
82.8248,857.446
82.9408,892.514
83.0568,837.573
83.1728,860.468
83.2888,749.196
83.4048,838.379
83.5208,881.607
83.6368,1016.26
83.7528,962.283
83.8688,866.987
83.9848,1482.24
84.1008,1763.63
84.2168,2225.16
84.3328,2008.85
84.4488,1841.05
84.5648,2109.35
84.6808,2334.25
84.7968,2672.81
84.9128,1316.23
85.0288,927.429
85.1448,879.612
85.2608,927.982
85.3768,842.209
85.4928,873.64
85.6088,886.432
85.7248,789.209
85.8408,880.088
85.9568,973.5497
86.0728,990.717
86.1888,922.921
86.3048,855.4534
86.4208,780.31
86.5368,852.567
86.6528,870.593
86.7688,789.304
86.8848,819.129
87.0008,888.624
87.1168,710.355
87.2328,761.701
87.3488,793.109
87.4648,878.488
87.5808,828.486
87.6968,697.811
87.8128,761.626
87.9288,751.101
88.0448,781.81
88.1608,726.442
88.2768,948.753
88.3928,844.179
88.5088,762.551
88.6248,847.497
88.7408,1016.37
88.8568,1691.01
88.9728,3226.1
89.0888,2296.92
89.2048,1189.45
89.3208,901.592
89.4368,755.059
89.5528,785.662
89.6688,865.0084
89.7848,810.763
89.9008,915.565
90.0168,954.667
90.1328,894.336
90.2488,729.583
90.3648,859.341
90.4808,801.3345
90.5968,875.157
90.7128,793.329
90.8288,772.362
90.9448,891.13
91.0608,878.431
91.1768,815.315
91.2928,771.309
91.4088,746.959
91.5248,868.855
91.6408,815.644
91.7568,909.137
91.8728,1013.45
91.9888,1099.35
92.1048,909.342
92.2208,739.859
92.3368,782.432
92.4528,808.153
92.5688,901.155
92.6848,817.166
92.8008,804.283
92.9168,885.478
93.0328,885.173
93.1488,1006.81
93.2648,2093.28
93.3808,2153.52
93.4968,1539.92
93.6128,1359.33
93.7288,1035.53
93.8448,889.454
93.9608,863.548
94.0768,871.345
94.1928,970.3411
94.3088,1464.43
94.4248,1583.81
94.5408,1015.15
94.6568,894.567
94.7728,869.8216
94.8888,904.778
95.0048,1112.61
95.1208,945.08
95.2368,2377.58
95.3528,3392.47
95.4688,1893.51
95.5848,987.981
95.7008,837.396
95.8168,980.793
95.9328,956.806
96.0488,1043.59
96.1648,1408.18
96.2808,1979.01
96.3968,1284.93
96.5128,977.412
96.6288,969.103
96.7448,836.431
96.8608,887.288
96.9768,809.659
97.0928,809.825
97.2088,831.568
97.3248,678.993
97.4408,784.163
97.5568,772.091
97.6728,733.929
97.7888,842.588
97.9048,767.789
98.0208,760.661
98.1368,826.713
98.2528,796.747
98.3688,816.14
98.4848,801.343
98.6008,761.407
98.7168,799.86
98.8328,836.785
98.9488,811.477
99.0648,756.984
99.1808,784.478
99.2968,767.5654
99.4128,698.963
99.5288,703.87
99.6448,737.1152
99.7608,716.855
99.8768,787.679
99.9928,768.791
100.1088,822.516
100.2248,663.5
100.3408,791.537
100.4568,811.8995
100.5728,715.332
100.6888,755.288
100.8048,683.491
100.9208,759.56
101.0368,697.078
101.1528,746.8
101.2688,812.668
101.3848,907.694
101.5008,859.974
101.6168,853.667
101.7328,769.305
101.8488,833.909
101.9648,779.815
102.0808,902.027
102.1968,1190.15
102.3128,1394.53
102.4288,984.142
102.5448,817.139
102.6608,827.461
102.7768,713.128
102.8928,904.4418
103.0088,757.764
103.1248,814.521
103.2408,753.049
103.3568,952.326
103.4728,736.202
103.5888,776.193
103.7048,867.421
103.8208,854.074
103.9368,860.455
104.0528,837.61
104.1688,824.301
104.2848,814.706
104.4008,795.881
104.5168,848.4108
104.6328,798.223
104.7488,862.731
104.8648,770.321
104.9808,950.614
105.0968,1180.73
105.2128,1469.44
105.3288,1436.52
105.4448,1904.07
105.5608,1742.64
105.6768,1107.28
105.7928,764.897
105.9088,842.306
106.0248,817.382
106.1408,781.068
106.2568,844.8635
106.3728,878.0069
106.4888,888.392
106.6048,855.896
106.7208,863.833
106.8368,810.643
106.9528,859.119
107.0688,926.169
107.1848,1608.81
107.3008,2835.6
107.4168,2760.18
107.5328,1228.05
107.6488,926.449
107.7648,820.292
107.8808,822.584
107.9968,856.577
108.1128,815.438
108.2288,756.8414
108.3448,820.686
108.4608,741.6171
108.5768,798.636
108.6928,760.434
108.8088,764.698
108.9248,859.1202
109.0408,843.9271
109.1568,763.7668
109.2728,760.071
109.3888,767.061
109.5048,685.99
109.6208,767.863
109.7368,827.575
109.8528,748.3256
109.9688,844.124
110.0848,832.344
110.2008,865.912
110.3168,793.171
110.4328,812.668
110.5488,753.6351
110.6648,793.326
110.7808,720.679
110.8968,746.541
111.0128,722.6749
111.1288,809.034
111.2448,838.977
111.3608,857.303
111.4768,717.355
111.5928,837.197
111.7088,807.8313
111.8248,899.365
111.9408,781.798
112.0568,874.855
112.1728,868.032
112.2888,977.612
112.4048,909.221
112.5208,933.964
112.6368,914.479
112.7528,856.195
112.8688,864.923
112.9848,1434.39
113.1008,1380.48
113.2168,997.28
113.3328,849.929
113.4488,876.711
113.5648,848.766
113.6808,780.895
113.7968,863.251
113.9128,1022.58
114.0288,1772.8
114.1448,2114.1
114.2608,1456.92
114.3768,975.462
114.4928,803.09
114.6088,745.4021
114.7248,1005.05
114.8408,1118.71
114.9568,1052.99
115.0728,858.9446
115.1888,665.795
115.3048,740.2024
115.4208,731.97
115.5368,761.458
115.6528,801.16
115.7688,747.461
115.8848,681.687
116.0008,806.722
116.1168,724.929
116.2328,646.401
116.3488,781.079
116.4648,647.951
116.5808,732.242
116.6968,629.732
116.8128,723.374
116.9288,786.934
117.0448,707.212
117.1608,771.962
117.2768,757.2713
117.3928,679.2341
117.5088,784.789
117.6248,855.662
117.7408,913.12
117.8568,743.471
117.9728,796.436
118.0888,681.102
118.2048,758.833
118.3208,657.312
118.4368,761.177
118.5528,757.31
118.6688,645.564
118.7848,656.708
118.9008,666.072
119.0168,728.01
119.1328,659.142
119.2488,753.827
119.3648,786.988
119.4808,750.408
119.5968,653.237
119.7128,671.937
119.8288,641.67
119.9448,664.873
120.0608,637.686
120.1768,625.076
120.2928,706.96
120.4088,758.4666
120.5248,795.155
120.6408,771.91
120.7568,698.91
120.8728,708.337
120.9888,690.739
121.1048,685.927
121.2208,780.7278
121.3368,740.9546
121.4528,732.013
121.5688,799.13
121.6848,754.53
121.8008,971.382
121.9168,1088.16
122.0328,1165.06
122.1488,1033.74
122.2648,1142.8
122.3808,1141.84
122.4968,1101.65
122.6128,1006.28
122.7288,961.441
122.8448,836.361
122.9608,830.403
123.0768,737.283
123.1928,689.275
123.3088,807.269
123.4248,636.146
123.5408,659.1572
123.6568,806.05
123.7728,744.816
123.8888,796.861
124.0048,813.6128
124.1208,605.948
124.2368,677.229
124.3528,716.35
124.4688,651.643
124.5848,746.03
124.7008,764.999
124.8168,754.301
124.9328,683.217
125.0488,781.0912
125.1648,1012.2
125.2808,1269.44
125.3968,1367.95
125.5128,977.875
125.6288,831.5124
125.7448,759.85
125.8608,680.606
125.9768,733.314
126.0928,576.203
126.2088,759.741
126.3248,813.781
126.4408,622.896
126.5568,701.366
126.6728,695.62
126.7888,717.335
126.9048,703.597
127.0208,800.83
127.1368,803.402
127.2528,759.399
127.3688,718.24
127.4848,935.053
127.6008,836.077
127.7168,941.531
127.8328,1326.24
127.9488,1338.42
128.0648,974.5419
128.1808,828.287
128.2968,1052.68
128.4128,1305.55
128.5288,993.234
128.6448,805.572
128.7608,694.195
128.8768,772.356
128.9928,797.589
129.1088,795.895
129.2248,757.748
129.3408,628.735
129.4568,625.5861
129.5728,812.408
129.6888,714.619
129.8048,681.494
129.9208,681.2473
130.0368,693.878
130.1528,664.426
130.2688,622.718
130.3848,749.72
130.5008,718.1073
130.6168,755.648
130.7328,717.944
130.8488,626.242
130.9648,682.006
131.0808,753.015
131.1968,801.046
131.3128,650.571
131.4288,686.816
131.5448,693.679
131.6608,767.455
131.7768,789.497
131.8928,770.37
132.0088,662.183
132.1248,730.055
132.2408,623.886
132.3568,727.527
132.4728,719.819
132.5888,694.625
132.7048,718.422
132.8208,667.625
132.9368,839.441
133.0528,659.523
133.1688,587.726
133.2848,749.633
133.4008,768.599
133.5168,900.743
133.6328,800.698
133.7488,824.142
133.8648,718.4457
133.9808,655.7
134.0968,711.82
134.2128,972.176
134.3288,929.774
134.4448,864.37
134.5608,674.057
134.6768,644.484
134.7928,749.3018
134.9088,877.779
135.0248,951.23
135.1408,967.912
135.2568,846.924
135.3728,782.003
135.4888,685.534
135.6048,605.437
135.7208,652.6642
135.8368,779.8579
135.9528,657.2178
136.0688,739.4403
136.1848,590.066
136.3008,680.3213
136.4168,676.925
136.5328,655.701
136.6488,664.5129
136.7648,698.01
136.8808,671.6217
136.9968,575.908
137.1128,601.434
137.2288,640.346
137.3448,619.2859
137.4608,746.05
137.5768,767.051
137.6928,850.803
137.8088,930.11
137.9248,913.606
138.0408,761.615
138.1568,618.427
138.2728,705.117
138.3888,810.341
138.5048,652.794
138.6208,657.0248
138.7368,679.09
138.8528,711.058
138.9688,748.046
139.0848,699.649
139.2008,832.916
139.3168,944.412
139.4328,791.428
139.5488,742.942
139.6648,733.964
139.7808,695.249
139.8968,648.607
140.0128,642.617
140.1288,662.285
140.2448,663.288
140.3608,570.705
140.4768,585.852
140.5928,574.412
140.7088,703.473
140.8248,782.408
140.9408,852.137
141.0568,933.482
141.1728,1132.09
141.2888,1116.55
141.4048,929.092
141.5208,848.013
141.6368,723.047
141.7528,690.704
141.8688,791.933
141.9848,708.536
142.1008,635.801
142.2168,633.059
142.3328,672.847
142.4488,587.294
142.5648,779.1627
142.6808,702.476
142.7968,646.5309
142.9128,737.613
143.0288,683.521
143.1448,650.502
143.2608,598.911
143.3768,707.133
143.4928,695.145
143.6088,612.698
143.7248,681.223
143.8408,724.231
143.9568,658.02
144.0728,724.795
144.1888,564.961
144.3048,772.6669
144.4208,687.084
144.5368,725.696
144.6528,725.929
144.7688,778.937
144.8848,674.903
145.0008,710.066
145.1168,714.78
145.2328,612.36
145.3488,662.184
145.4648,712.994
145.5808,739.135
145.6968,759.314
145.8128,642.177
145.9288,721.616
146.0448,690.578
146.1608,624.357
146.2768,742.797
146.3928,699.35
146.5088,670.613
146.6248,749.641
146.7408,688.482
146.8568,792.661
146.9728,747.943
147.0888,775.664
147.2048,693.4917
147.3208,667.7159
147.4368,694.196
147.5528,688.451
147.6688,774.8272
147.7848,901.804
147.9008,950.212
148.0168,863.033
148.1328,810.521
148.2488,738.285
148.3648,784.769
148.4808,705.63
148.5968,718.888
148.7128,677.663
148.8288,658.296
148.9448,619.204
149.0608,783.838
149.1768,802.128
149.2928,671.756
149.4088,649.994
149.5248,667.165
149.6408,718.941
149.7568,777.662
149.8728,775.398
149.9888,692.184
150.1048,715.31
150.2208,641.214
150.3368,732.023
150.4528,801.675
150.5688,805.484
150.6848,770.1442
150.8008,683.468
150.9168,643.087
151.0328,655.492
151.1488,592.913
151.2648,619.695
151.3808,751.151
151.4968,768.733
151.6128,708.174
151.7288,622.983
151.8448,681.155
151.9608,803.009
152.0768,662.41
152.1928,649.0884
152.3088,596.49
152.4248,607.609
152.5408,639.822
152.6568,628.3382
152.7728,681.918
152.8888,688.7117
153.0048,640.821
153.1208,620.18
153.2368,624.329
153.3528,692.901
153.4688,705.665
153.5848,710.114
153.7008,822.45
153.8168,802.848
153.9328,874.089
154.0488,921.819
154.1648,839.828
154.2808,780.12
154.3968,716.687
154.5128,800.591
154.6288,722.3424
154.7448,715.992
154.8608,668.143
154.9768,640.683
155.0928,672.337
155.2088,700.326
155.3248,653.555
155.4408,632.687
155.5568,709.734
155.6728,722.401
155.7888,719.9374
155.9048,736.431
156.0208,713.821
156.1368,726.944
156.2528,711.787
156.3688,752.46
156.4848,734.5751
156.6008,620.863
156.7168,570.594
156.8328,591.443
156.9488,700.528
157.0648,651.803
157.1808,639.7152
157.2968,683.776
157.4128,691.304
157.5288,656.728
157.6448,716.557
157.7608,870.772
157.8768,1002.3
157.9928,990.297
158.1088,1255.03
158.2248,1480.3
158.3408,1416.04
158.4568,1312.6
158.5728,1161.06
158.6888,1012.97
158.8048,921.188
158.9208,652.112
159.0368,619.332
159.1528,678.16
159.2688,643.907
159.3848,701.2461
159.5008,632.085
159.6168,628.306
159.7328,606.2053
159.8488,645.571
159.9648,714.349
160.0808,716.073
160.1968,657.975
160.3128,583.275
160.4288,599.505
160.5448,603.854
160.6608,630.089
160.7768,630.227
160.8928,648.309
161.0088,688.896
161.1248,703.719
161.2408,707.497
161.3568,703.0332
161.4728,681.137
161.5888,682.956
161.7048,683.983
161.8208,688.552
161.9368,623.6229
162.0528,643.122
162.1688,741.8735
162.2848,695.048
162.4008,669.888
162.5168,675.796
162.6328,715.855
162.7488,741.555
162.8648,737.552
162.9808,740.766
163.0968,757.271
163.2128,788.897
163.3288,679.55
163.4448,622.626
163.5608,671.372
163.6768,673.414
163.7928,678.7133
163.9088,712.396
164.0248,715.864
164.1408,689.691
164.2568,726.064
164.3728,760.362
164.4888,728.691
164.6048,726.163
164.7208,745.084
164.8368,733.398
164.9528,725.481
165.0688,712.505
165.1848,710.592
165.3008,742.133
165.4168,704.639
165.5328,660.665
165.6488,650.968
165.7648,657.621
165.8808,623.147
165.9968,566.342
166.1128,549.902
166.2288,605.383
166.3448,649.222
166.4608,630.549
166.5768,591.446
166.6928,598.036
166.8088,664.516
166.9248,719.64
167.0408,718.804
167.1568,759.873
167.2728,797.8915
167.3888,766.171
167.5048,685.557
167.6208,624.479
167.7368,618.74
167.8528,639.9738
167.9688,662.087
168.0848,627.819
168.2008,600.08
168.3168,607.32
168.4328,652.4171
168.5488,698.658
168.6648,716.383
168.7808,691.585
168.8968,677.335
169.0128,699.7178
169.1288,756.145
169.2448,807.747
169.3608,813.348
169.4768,778.865
169.5928,740.623
169.7088,709.91
169.8248,705.088
169.9408,749.108
170.0568,753.767
170.1728,765.941
170.2888,721.596
170.4048,681.932
170.5208,672.3496
170.6368,669.766
170.7528,652.57
170.8688,631.96
170.9848,609.312
171.1008,579.149
171.2168,583.896
171.3328,600.193
171.4488,633.298
171.5648,668.357
171.6808,694.527
171.7968,708.5247
171.9128,706.687
172.0288,718.3649
172.1448,722.495
172.2608,723.219
172.3768,710.8312
172.4928,722.448
172.6088,734.943
172.7248,767.4344
172.8408,774.253
172.9568,779.417
173.0728,757.957
173.1888,738.785
173.3048,712.862
173.4208,698.417
173.5368,682.699
173.6528,677.663
173.7688,677.706
173.8848,677.559
174.0008,698.524
174.1168,691.465
174.2328,680.69
174.3488,642.204
174.4648,627.028
174.5808,615.621
174.6968,587.909
174.8128,592.747
174.9288,628.584
175.0448,634.967
175.1608,655.306
175.2768,665.889
175.3928,651.968
175.5088,662.544
175.6248,676.041
175.7408,701.129
175.8568,704.827
175.9728,707.659
176.0888,736.089
176.2048,739.207
176.3208,737.013
176.4368,709.921
176.5528,707.077
176.6688,703.949
176.7848,682.678
176.9008,673.642
177.0168,666.782
177.1328,661.894
177.2488,682.594
177.3648,680.886
177.4808,678.338
177.5968,675.071
177.7128,671.2
177.8288,665.2147
177.9448,662.116
178.0608,658.817
178.1768,655.38
178.2928,651.863
178.4088,648.323
178.5248,625.128
178.6408,622.034
178.7568,619.5253
178.8728,617.518
178.9088,616.985