File: data/xrd_icdd_PDF/00-065-0440 (PD3).csv
5,49
5.08,47
5.16,39
5.24,44
5.32,48
5.4,47
5.48,45
5.56,49
5.64,34
5.72,48
5.8,31
5.88,46
5.96,45
6.04,48
6.12,49
6.2,37
6.28,52
6.36,55
6.44,47
6.52,34
6.6,58
6.68,37
6.76,45
6.84,45
6.92,40
7,47
7.08,65
7.16,49
7.24,44
7.32,38
7.4,44
7.48,35
7.56,54
7.64,59
7.72,33
7.8,51
7.88,58
7.96,65
8.04,52
8.12,61
8.2,33
8.28,45
8.36,40
8.44,62
8.52,41
8.6,54
8.68,46
8.76,48
8.84,65
8.92,45
9,58
9.08,56
9.16,59
9.24,59
9.32,41
9.4,49
9.48,68
9.56,54
9.64,54
9.72,58
9.8,64
9.88,53
9.96,65
10.04,66
10.12,74
10.2,69
10.28,69
10.36,78
10.44,75
10.52,70
10.6,68
10.68,74
10.76,71
10.84,54
10.92,69
11,63
11.08,53
11.16,70
11.24,74
11.32,67
11.4,58
11.48,63
11.56,75
11.64,53
11.72,67
11.8,61
11.88,63
11.96,59
12.04,73
12.12,69
12.2,62
12.28,59
12.36,61
12.44,73
12.52,66
12.6,61
12.68,69
12.76,75
12.84,55
12.92,58
13,78
13.08,68
13.16,78
13.24,71
13.32,68
13.4,61
13.48,66
13.56,61
13.64,76
13.72,84
13.8,64
13.88,67
13.96,79
14.04,67
14.12,82
14.2,82
14.28,74
14.36,81
14.44,64
14.52,69
14.6,68
14.68,71
14.76,65
14.84,74
14.92,68
15,67
15.08,73
15.16,81
15.24,86
15.32,69
15.4,81
15.48,71
15.56,71
15.64,88
15.72,72
15.8,59
15.88,81
15.96,66
16.04,69
16.12,84
16.2,79
16.28,77
16.36,70
16.44,90
16.52,79
16.6,78
16.68,94
16.76,83
16.84,85
16.92,92
17,72
17.08,75
17.16,87
17.24,75
17.32,90
17.4,90
17.48,82
17.56,89
17.64,71
17.72,77
17.8,76
17.88,79
17.96,73
18.04,82
18.12,76
18.2,75
18.28,81
18.36,88
18.44,93
18.52,77
18.6,89
18.68,79
18.76,75
18.84,78
18.92,66
19,72
19.08,78
19.16,76
19.24,78
19.32,65
19.4,81
19.48,78
19.56,81
19.64,78
19.72,95
19.8,81
19.88,78
19.96,92
20.04,107
20.12,76
20.2,102
20.28,103
20.36,116
20.44,133
20.52,158
20.6,369
20.68,393
20.76,257
20.84,147
20.92,129
21,115
21.08,106
21.16,99
21.24,104
21.32,102
21.4,86
21.48,102
21.56,106
21.64,144
21.72,144
21.8,122
21.88,104
21.96,122
22.04,115
22.12,149
22.2,191
22.28,412
22.36,689
22.44,1522
22.52,1478
22.6,538
22.68,271
22.76,198
22.84,158
22.92,109
23,120
23.08,110
23.16,109
23.24,91
23.32,102
23.4,83
23.48,96
23.56,94
23.64,96
23.72,96
23.8,83
23.88,98
23.96,100
24.04,91
24.12,78
24.2,102
24.28,81
24.36,87
24.44,87
24.52,86
24.6,92
24.68,99
24.76,104
24.84,87
24.92,99
25,89
25.08,104
25.16,108
25.24,102
25.32,106
25.4,99
25.48,93
25.56,86
25.64,90
25.72,89
25.8,94
25.88,101
25.96,104
26.04,106
26.12,104
26.2,82
26.28,100
26.36,98
26.44,80
26.52,90
26.6,98
26.68,89
26.76,90
26.84,93
26.92,97
27,98
27.08,104
27.16,100
27.24,99
27.32,106
27.4,103
27.48,102
27.56,94
27.64,108
27.72,94
27.8,107
27.88,113
27.96,90
28.04,98
28.12,99
28.2,97
28.28,107
28.36,90
28.44,97
28.52,102
28.6,114
28.68,106
28.76,110
28.84,108
28.92,103
29,97
29.08,93
29.16,106
29.24,99
29.32,114
29.4,102
29.48,111
29.56,122
29.64,113
29.72,124
29.8,124
29.88,133
29.96,126
30.04,144
30.12,152
30.2,162
30.28,161
30.36,225
30.44,262
30.52,410
30.6,916
30.68,2444
30.76,3264
30.84,1151
30.92,525
31,388
31.08,384
31.16,421
31.24,642
31.32,1416
31.4,3820
31.48,3748
31.56,1354
31.64,590
31.72,371
31.8,274
31.88,217
31.96,187
32.04,177
32.12,169
32.2,135
32.28,136
32.36,130
32.44,124
32.52,131
32.6,111
32.68,115
32.76,116
32.84,125
32.92,116
33,117
33.08,114
33.16,108
33.24,100
33.32,95
33.4,107
33.48,98
33.56,111
33.64,98
33.72,103
33.8,112
33.88,101
33.96,109
34.04,106
34.12,111
34.2,98
34.28,109
34.36,110
34.44,117
34.52,106
34.6,110
34.68,121
34.76,121
34.84,109
34.92,120
35,125
35.08,128
35.16,131
35.24,154
35.32,195
35.4,365
35.48,854
35.56,1375
35.64,1076
35.72,471
35.8,253
35.88,199
35.96,170
36.04,147
36.12,126
36.2,144
36.28,121
36.36,129
36.44,129
36.52,126
36.6,137
36.68,161
36.76,154
36.84,162
36.92,176
37,215
37.08,261
37.16,388
37.24,689
37.32,1546
37.4,3657
37.48,3734
37.56,1300
37.64,608
37.72,359
37.8,263
37.88,207
37.96,181
38.04,163
38.12,160
38.2,142
38.28,138
38.36,130
38.44,120
38.52,109
38.6,103
38.68,112
38.76,102
38.84,115
38.92,101
39,107
39.08,115
39.16,104
39.24,111
39.32,112
39.4,116
39.48,103
39.56,114
39.64,112
39.72,121
39.8,110
39.88,112
39.96,122
40.04,121
40.12,106
40.2,115
40.28,116
40.36,113
40.44,106
40.52,113
40.6,94
40.68,105
40.76,115
40.84,127
40.92,141
41,140
41.08,151
41.16,140
41.24,157
41.32,163
41.4,177
41.48,210
41.56,211
41.64,264
41.72,320
41.8,428
41.88,672
41.96,1365
42.04,3181
42.12,2913
42.2,1378
42.28,1112
42.36,1699
42.44,3841
42.52,6824
42.6,3462
42.68,1696
42.76,750
42.84,525
42.92,409
43,321
43.08,285
43.16,275
43.24,252
43.32,266
43.4,273
43.48,284
43.56,323
43.64,360
43.72,458
43.8,627
43.88,985
43.96,1980
44.04,5387
44.12,9793
44.2,5628
44.28,2352
44.36,1096
44.44,671
44.52,467
44.6,344
44.68,287
44.76,261
44.84,233
44.92,218
45,207
45.08,188
45.16,201
45.24,205
45.32,204
45.4,207
45.48,260
45.56,293
45.64,411
45.72,683
45.8,1314
45.88,3421
45.96,2990
46.04,1131
46.12,525
46.2,352
46.28,254
46.36,206
46.44,188
46.52,159
46.6,146
46.68,153
46.76,135
46.84,131
46.92,134
47,112
47.08,111
47.16,121
47.24,107
47.32,121
47.4,115
47.48,108
47.56,114
47.64,97
47.72,104
47.8,106
47.88,115
47.96,123
48.04,168
48.12,269
48.2,506
48.28,396
48.36,213
48.44,150
48.52,113
48.6,118
48.68,107
48.76,94
48.84,107
48.92,110
49,102
49.08,93
49.16,96
49.24,106
49.32,84
49.4,99
49.48,92
49.56,96
49.64,93
49.72,109
49.8,111
49.88,114
49.96,126
50.04,218
50.12,419
50.2,381
50.28,200
50.36,134
50.44,108
50.52,119
50.6,99
50.68,119
50.76,137
50.84,174
50.92,132
51,122
51.08,101
51.16,96
51.24,112
51.32,102
51.4,100
51.48,105
51.56,84
51.64,86
51.72,98
51.8,84
51.88,99
51.96,99
52.04,91
52.12,98
52.2,80
52.28,84
52.36,83
52.44,86
52.52,80
52.6,88
52.68,82
52.76,81
52.84,87
52.92,94
53,98
53.08,81
53.16,93
53.24,83
53.32,98
53.4,102
53.48,96
53.56,101
53.64,94
53.72,88
53.8,81
53.88,85
53.96,83
54.04,87
54.12,94
54.2,97
54.28,99
54.36,97
54.44,75
54.52,93
54.6,91
54.68,73
54.76,83
54.84,91
54.92,82
55,83
55.08,86
55.16,89
55.24,90
55.32,96
55.4,92
55.48,92
55.56,100
55.64,109
55.72,105
55.8,112
55.88,119
55.96,93
56.04,99
56.12,104
56.2,80
56.28,88
56.36,88
56.44,85
56.52,95
56.6,78
56.68,85
56.76,87
56.84,98
56.92,90
57,94
57.08,92
57.16,86
57.24,79
57.32,75
57.4,87
57.48,80
57.56,93
57.64,81
57.72,88
57.8,99
57.88,94
57.96,116
58.04,114
58.12,106
58.2,87
58.28,97
58.36,94
58.44,90
58.52,77
58.6,97
58.68,89
58.76,84
58.84,101
58.92,104
59,115
59.08,129
59.16,149
59.24,205
59.32,372
59.4,599
59.48,427
59.56,231
59.64,160
59.72,140
59.8,122
59.88,124
59.96,127
60.04,129
60.12,132
60.2,148
60.28,153
60.36,202
60.44,263
60.52,470
60.6,1114
60.68,2287
60.76,1112
60.84,559
60.92,556
61,414
61.08,234
61.16,176
61.24,145
61.32,132
61.4,123
61.48,104
61.56,115
61.64,114
61.72,103
61.8,89
61.88,111
61.96,89
62.04,97
62.12,96
62.2,92
62.28,99
62.36,118
62.44,105
62.52,103
62.6,104
62.68,122
62.76,135
62.84,204
62.92,291
63,632
63.08,470
63.16,263
63.24,168
63.32,156
63.4,136
63.48,149
63.56,164
63.64,161
63.72,208
63.8,293
63.88,539
63.96,1273
64.04,2010
64.12,962
64.2,751
64.28,625
64.36,327
64.44,220
64.52,172
64.6,154
64.68,144
64.76,131
64.84,154
64.92,180
65,243
65.08,435
65.16,675
65.24,444
65.32,260
65.4,210
65.48,253
65.56,412
65.64,604
65.72,395
65.8,222
65.88,150
65.96,132
66.04,102
66.12,99
66.2,93
66.28,92
66.36,84
66.44,90
66.52,82
66.6,80
66.68,85
66.76,92
66.84,96
66.92,78
67,90
67.08,79
67.16,94
67.24,98
67.32,92
67.4,97
67.48,90
67.56,84
67.64,77
67.72,81
67.8,80
67.88,83
67.96,91
68.04,94
68.12,97
68.2,96
68.28,76
68.36,69
68.44,88
68.52,87
68.6,124
68.68,172
68.76,200
68.84,135
68.92,121
69,99
69.08,97
69.16,115
69.24,108
69.32,132
69.4,112
69.48,153
69.56,188
69.64,261
69.72,424
69.8,983
69.88,1754
69.96,907
70.04,479
70.12,218
70.2,179
70.28,143
70.36,130
70.44,125
70.52,106
70.6,93
70.68,102
70.76,86
70.84,95
70.92,99
71,75
71.08,82
71.16,81
71.24,80
71.32,90
71.4,75
71.48,90
71.56,109
71.64,125
71.72,99
71.8,92
71.88,87
71.96,79
72.04,71
72.12,75
72.2,68
72.28,89
72.36,78
72.44,79
72.52,96
72.6,88
72.68,92
72.76,103
72.84,89
72.92,101
73,130
73.08,149
73.16,214
73.24,331
73.32,619
73.4,768
73.48,370
73.56,203
73.64,134
73.72,125
73.8,114
73.88,98
73.96,84
74.04,85
74.12,94
74.2,71
74.28,84
74.36,77
74.44,80
74.52,76
74.6,90
74.68,89
74.76,85
74.84,86
74.92,97
75,125
75.08,164
75.16,183
75.24,291
75.32,533
75.4,608
75.48,462
75.56,296
75.64,207
75.72,187
75.8,259
75.88,250
75.96,146
76.04,98
76.12,120
76.2,82
76.28,91
76.36,74
76.44,58
76.52,62
76.6,71
76.68,57
76.76,82
76.84,86
76.92,102
77,94
77.08,91
77.16,86
77.24,79
77.32,71
77.4,67
77.48,79
77.56,71
77.64,84
77.72,72
77.8,81
77.88,94
77.96,94
78.04,124
78.12,125
78.2,108
78.28,82
78.36,89
78.44,85
78.52,93
78.6,81
78.68,83
78.76,94
78.84,93
78.92,79
79,89
79.08,91
79.16,90
79.24,86
79.32,98
79.4,89
79.48,113
79.56,137
79.64,195
79.72,266
79.8,605
79.88,856
79.96,676
80.04,273
80.12,178
80.2,153
80.28,107
80.36,99
80.44,107
80.52,77
80.6,88
80.68,81
80.76,77
80.84,68
80.92,86
81,74
81.08,74
81.16,89
81.24,78
81.32,79
81.4,87
81.48,68
81.56,71
81.64,84
81.72,73
81.8,90
81.88,92
81.96,89
82.04,105
82.12,101
82.2,110
82.28,115
82.36,141
82.44,195
82.52,389
82.6,660
82.68,491
82.76,270
82.84,182
82.92,149
83,151
83.08,160
83.16,206
83.24,346
83.32,591
83.4,537
83.48,367
83.56,383
83.64,680
83.72,1024
83.8,652
83.88,580
83.96,429
84.04,304
84.12,211
84.2,195
84.28,202
84.36,168
84.44,131
84.52,119
84.6,95
84.68,103
84.76,82
84.84,94
84.92,91
85,93
85.08,92
85.16,79
85.24,93
85.32,94
85.4,86
85.48,73
85.56,96
85.64,75
85.72,83
85.8,83
85.88,78
85.96,86
86.04,106
86.12,93
86.2,93
86.28,99
86.36,131
86.44,177
86.52,266
86.6,277
86.68,234
86.76,182
86.84,138
86.92,120
87,96
87.08,100
87.16,67
87.24,77
87.32,70
87.4,90
87.48,69
87.56,81
87.64,73
87.72,74
87.8,92
87.88,73
87.96,88
88.04,93
88.12,110
88.2,109
88.28,68
88.36,78
88.44,92
88.52,77
88.6,76
88.68,79
88.76,84
88.84,58
88.92,84
89,92
89.08,93
89.16,72
89.24,74
89.32,84
89.4,106
89.48,122
89.56,111
89.64,88
89.72,83
89.8,83
89.88,86
89.96,84
90.04,52
90.12,61
90.2,79
90.28,89
90.36,68
90.44,63
90.52,78
90.6,46
90.68,63
90.76,84
90.84,51
90.92,74
91,73
91.08,71
91.16,86
91.24,62
91.32,89
91.4,88
91.48,84
91.56,100
91.64,128
91.72,180
91.8,211
91.88,148
91.96,130
92.04,86
92.12,99
92.2,100
92.28,94
92.36,104
92.44,85
92.52,102
92.6,111
92.68,140
92.76,147
92.84,276
92.92,440
93,554
93.08,335
93.16,187
93.24,161
93.32,106
93.4,111
93.48,106
93.56,95
93.64,99
93.72,74
93.8,83
93.88,81
93.96,90
94.04,86
94.12,92
94.2,92
94.28,73
94.36,79
94.44,86
94.52,45
94.6,78
94.68,89
94.76,88
94.84,76
94.92,61
95,87
95.08,94
95.16,67
95.24,81
95.32,52
95.4,58
95.48,84
95.56,67
95.64,82
95.72,71
95.8,95
95.88,95
95.96,84
96.04,104
96.12,127
96.2,103
96.28,124
96.36,94
96.44,83
96.52,80
96.6,90
96.68,103
96.76,113
96.84,130
96.92,135
97,194
97.08,217
97.16,288
97.24,479
97.32,841
97.4,1034
97.48,642
97.56,387
97.64,317
97.72,220
97.8,179
97.88,149
97.96,125
98.04,122
98.12,92
98.2,99
98.28,95
98.36,103
98.44,99
98.52,106
98.6,109
98.68,97
98.76,119
98.84,155
98.92,132
99,138
99.08,123
99.16,109
99.24,91
99.32,74
99.4,100
99.48,109
99.56,88
99.64,109
99.72,79
99.8,85
99.88,124
99.96,134
100.04,163
100.12,122
100.2,118
100.28,103
100.36,80
100.44,83
100.52,86
100.6,65
100.68,102
100.76,80
100.84,70
100.92,66
101,72
101.08,80
101.16,83
101.24,87
101.32,69
101.4,88
101.48,71
101.56,69
101.64,83
101.72,80
101.8,92
101.88,94
101.96,104
102.04,96
102.12,86
102.2,81
102.28,98
102.36,102
102.44,188
102.52,444
102.6,297
102.68,136
102.76,121
102.84,101
102.92,88
103,72
103.08,98
103.16,95
103.24,102
103.32,77
103.4,78
103.48,98
103.56,95
103.64,87
103.72,92
103.8,95
103.88,94
103.96,91
104.04,95
104.12,81
104.2,94
104.28,78
104.36,93
104.44,93
104.52,98
104.6,100
104.68,90
104.76,109
104.84,99
104.92,109
105,134
105.08,151
105.16,177
105.24,447
105.32,653
105.4,488
105.48,230
105.56,177
105.64,137
105.72,118
105.8,100
105.88,114
105.96,99
106.04,95
106.12,110
106.2,98
106.28,100
106.36,107
106.44,85
106.52,86
106.6,97
106.68,84
106.76,99
106.84,98
106.92,89
107,96
107.08,78
107.16,83
107.24,82
107.32,85
107.4,79
107.48,88
107.56,82
107.64,81
107.72,88
107.8,95
107.88,101
107.96,85
108.04,98
108.12,90
108.2,107
108.28,114
108.36,113
108.44,126
108.52,133
108.6,153
108.68,192
108.76,281
108.84,257
108.92,204
109,191
109.08,182
109.16,194
109.24,165
109.32,150
109.4,150
109.48,202
109.56,236
109.64,226
109.72,190
109.8,142
109.88,124
109.96,121
110.04,95
110.12,94
110.2,103
110.28,89
110.36,102
110.44,102
110.52,93
110.6,100
110.68,81
110.76,86
110.84,85
110.92,88
111,83
111.08,93
111.16,90
111.24,94
111.32,109
111.4,117
111.48,115
111.56,91
111.64,100
111.72,88
111.8,103
111.88,107
111.96,101
112.04,106
112.12,100
112.2,95
112.28,90
112.36,97
112.44,102
112.52,117
112.6,139
112.68,149
112.76,140
112.84,129
112.92,104
113,125
113.08,131
113.16,132
113.24,175
113.32,222
113.4,214
113.48,192
113.56,194
113.64,229
113.72,310
113.8,533
113.88,341
113.96,263
114.04,193
114.12,155
114.2,134
114.28,130
114.36,120
114.44,116
114.52,122
114.6,130
114.68,122
114.76,123
114.84,153
114.92,170
115,220
115.08,228
115.16,166
115.24,143
115.32,127
115.4,118
115.48,128
115.56,116
115.64,128
115.72,136
115.8,163
115.88,185
115.96,204
116.04,177
116.12,140
116.2,114
116.28,100
116.36,106
116.44,96
116.52,107
116.6,94
116.68,101
116.76,112
116.84,103
116.92,115
117,119
117.08,134
117.16,138
117.24,181
117.32,215
117.4,337
117.48,332
117.56,322
117.64,208
117.72,190
117.8,137
117.88,143
117.96,147
118.04,146
118.12,158
118.2,196
118.28,239
118.36,263
118.44,229
118.52,194
118.6,171
118.68,153
118.76,168
118.84,146
118.92,123
119,99
119.08,99
119.16,102
119.24,114
119.32,100
119.4,111
119.48,116
119.56,93
119.64,103
119.72,108
119.8,114
119.88,139
119.96,147
120,161