File: data/xrd_icdd_PDF/00-062-0134 (PD3).csv
5.023,2088
5.11,2180
5.197,2139
5.284,2135
5.371,2201
5.458,2204
5.545,2220
5.632,2294
5.719,2281
5.806,2254
5.893,2267
5.98,2309
6.067,2324
6.154,2359
6.241,2342
6.328,2166
6.415,2267
6.502,2311
6.589,2268
6.676,2274
6.763,2248
6.85,2203
6.937,2215
7.024,2178
7.111,2198
7.198,2107
7.285,2225
7.372,2141
7.459,2186
7.546,2233
7.633,2190
7.72,2215
7.807,2262
7.894,2262
7.981,2313
8.068,2326
8.155,2339
8.242,2332
8.329,2375
8.416,2478
8.503,2452
8.59,2386
8.677,2336
8.764,2296
8.851,2347
8.938,2462
9.025,2327
9.112,2371
9.199,2314
9.286,2346
9.373,2315
9.46,2401
9.547,2296
9.634,2315
9.721,2265
9.808,2258
9.895,2247
9.982,2260
10.069,2278
10.156,2276
10.243,2206
10.33,2202
10.417,2213
10.504,2290
10.591,2238
10.678,2346
10.765,2331
10.852,2333
10.939,2269
11.026,2263
11.113,2254
11.2,2232
11.287,2323
11.374,2276
11.461,2262
11.548,2266
11.635,2274
11.722,2233
11.809,2238
11.896,2208
11.983,2186
12.07,2162
12.157,2221
12.244,2245
12.331,2204
12.418,2240
12.505,2331
12.592,2259
12.679,2299
12.766,2430
12.853,2374
12.94,2404
13.027,2367
13.114,2484
13.201,2579
13.288,2562
13.375,2534
13.462,2448
13.549,2549
13.636,2666
13.723,2522
13.81,2613
13.897,2649
13.984,2492
14.071,2537
14.158,2626
14.245,2530
14.332,2508
14.419,2497
14.506,2519
14.593,2551
14.68,2635
14.767,2656
14.854,2609
14.941,2820
15.028,2806
15.115,2707
15.202,2883
15.289,2812
15.376,2880
15.463,2906
15.55,2930
15.637,2926
15.724,2947
15.811,2977
15.898,2972
15.985,3020
16.072,2876
16.159,2892
16.246,2880
16.333,2964
16.42,3005
16.507,2932
16.594,3011
16.681,3383
16.768,3095
16.855,2826
16.942,2908
17.029,2848
17.116,2924
17.203,2852
17.29,2857
17.377,2822
17.464,2965
17.551,2801
17.638,2899
17.725,2997
17.812,3013
17.899,3051
17.986,3040
18.073,3037
18.16,3118
18.247,3145
18.334,3196
18.421,3137
18.508,3259
18.595,3144
18.682,3218
18.769,3159
18.856,3195
18.943,3132
19.03,3159
19.117,3063
19.204,3088
19.291,3134
19.378,3106
19.465,3064
19.552,3084
19.639,3135
19.726,3097
19.813,3150
19.9,3128
19.987,3239
20.074,3218
20.161,3215
20.248,3260
20.335,3272
20.422,3189
20.509,3386
20.596,3341
20.683,3218
20.77,3176
20.857,3311
20.944,3285
21.031,3297
21.118,3347
21.205,3295
21.292,3324
21.379,3266
21.466,3361
21.553,3228
21.64,3229
21.727,3319
21.814,3301
21.901,3321
21.988,3347
22.075,3301
22.162,3307
22.249,3273
22.336,3324
22.423,3388
22.51,3208
22.597,3346
22.684,3413
22.771,4076
22.858,6118
22.945,4024
23.032,3430
23.119,3425
23.206,3333
23.293,3352
23.38,3397
23.467,3337
23.554,3498
23.641,3361
23.728,3340
23.815,3489
23.902,3416
23.989,3504
24.076,3455
24.163,3554
24.25,3453
24.337,3538
24.424,3511
24.511,3398
24.598,3550
24.685,3549
24.772,3432
24.859,3465
24.946,3525
25.033,3504
25.12,3462
25.207,3535
25.294,3549
25.381,3414
25.468,3533
25.555,3538
25.642,3483
25.729,3595
25.816,3468
25.903,3550
25.99,3555
26.077,3570
26.164,3708
26.251,3517
26.338,3528
26.425,3581
26.512,3631
26.599,3632
26.686,3555
26.773,3632
26.86,3509
26.947,3594
27.034,3592
27.121,3566
27.208,3505
27.295,3595
27.382,3646
27.469,3633
27.556,3497
27.643,3697
27.73,3743
27.817,3642
27.904,3703
27.991,3631
28.078,3790
28.165,3694
28.252,3775
28.339,3802
28.426,3721
28.513,3719
28.6,3740
28.687,3816
28.774,3906
28.861,4271
28.948,6171
29.035,18600
29.122,12009
29.209,4886
29.296,4104
29.383,3886
29.47,3928
29.557,3884
29.644,3778
29.731,3692
29.818,3744
29.905,3816
29.992,3760
30.079,3854
30.166,3808
30.253,3892
30.34,3827
30.427,3616
30.514,3800
30.601,3868
30.688,3829
30.775,3851
30.862,3812
30.949,3858
31.036,4050
31.123,4181
31.21,5288
31.297,16720
31.384,16722
31.471,5411
31.558,4351
31.645,4201
31.732,4095
31.819,4049
31.906,3892
31.993,4012
32.08,4017
32.167,4042
32.254,4236
32.341,4067
32.428,4054
32.515,3956
32.602,3959
32.689,3944
32.776,4064
32.863,3895
32.95,3896
33.037,4017
33.124,3980
33.211,4080
33.298,3984
33.385,4121
33.472,4300
33.559,5249
33.646,11890
33.733,9738
33.82,4653
33.907,4164
33.994,4103
34.081,4168
34.168,4080
34.255,4033
34.342,3990
34.429,4052
34.516,4079
34.603,3949
34.69,3917
34.777,3994
34.864,4003
34.951,4045
35.038,3967
35.125,3980
35.212,4072
35.299,4151
35.386,4296
35.473,4382
35.56,5654
35.647,15697
35.734,12835
35.821,5342
35.908,4509
35.995,4425
36.082,4292
36.169,4223
36.256,4351
36.343,4294
36.43,4298
36.517,4240
36.604,4393
36.691,4432
36.778,4452
36.865,4764
36.952,5229
37.039,6419
37.126,11105
37.213,45595
37.3,68322
37.387,14690
37.474,6817
37.561,5423
37.648,5008
37.735,4636
37.822,4486
37.909,4293
37.996,4517
38.083,4270
38.17,4306
38.257,4431
38.344,4237
38.431,4217
38.518,4267
38.605,4267
38.692,4140
38.779,4296
38.866,4205
38.953,4202
39.04,4208
39.127,4247
39.214,4108
39.301,4082
39.388,4195
39.475,4265
39.562,4200
39.649,4171
39.736,4040
39.823,4129
39.91,4214
39.997,4153
40.084,4210
40.171,4217
40.258,4251
40.345,4252
40.432,4226
40.519,4289
40.606,4218
40.693,4196
40.78,4237
40.867,4175
40.954,4234
41.041,4268
41.128,4204
41.215,4189
41.302,4299
41.389,4247
41.476,4252
41.563,4208
41.65,4271
41.737,4337
41.824,4196
41.911,4318
41.998,4312
42.085,4229
42.172,4397
42.259,4294
42.346,4459
42.433,4243
42.52,4245
42.607,4187
42.694,4228
42.781,4274
42.868,4247
42.955,4202
43.042,4322
43.129,4374
43.216,4861
43.303,4627
43.39,4339
43.477,4300
43.564,4324
43.651,4130
43.738,4366
43.825,4332
43.912,4251
43.999,4324
44.086,4268
44.173,4190
44.26,4320
44.347,4458
44.434,4350
44.521,4392
44.608,4348
44.695,4388
44.782,4518
44.869,4653
44.956,5457
45.043,9633
45.13,7178
45.217,4788
45.304,4412
45.391,4302
45.478,4354
45.565,4256
45.652,4343
45.739,4426
45.826,4373
45.913,4455
46,4201
46.087,4403
46.174,4374
46.261,4644
46.348,4658
46.435,5004
46.522,6346
46.609,15546
46.696,24362
46.783,8809
46.87,5462
46.957,4841
47.044,4597
47.131,4631
47.218,4518
47.305,4604
47.392,4466
47.479,4602
47.566,4662
47.653,4756
47.74,4918
47.827,5963
47.914,12917
48.001,13623
48.088,6007
48.175,5010
48.262,4591
48.349,4643
48.436,4459
48.523,4448
48.61,4394
48.697,4530
48.784,4388
48.871,4454
48.958,4204
49.045,4360
49.132,4340
49.219,4488
49.306,4389
49.393,4356
49.48,4331
49.567,4486
49.654,4368
49.741,4485
49.828,4502
49.915,4411
50.002,4356
50.089,4571
50.176,4436
50.263,4252
50.35,4409
50.437,4396
50.524,4337
50.611,4393
50.698,4545
50.785,4540
50.872,4554
50.959,4985
51.046,4753
51.133,4574
51.22,4689
51.307,4533
51.394,4754
51.481,5604
51.568,7116
51.655,4953
51.742,4604
51.829,4552
51.916,4540
52.003,4589
52.09,4455
52.177,4492
52.264,4585
52.351,4718
52.438,4375
52.525,4543
52.612,4455
52.699,4588
52.786,4457
52.873,4419
52.96,4509
53.047,4558
53.134,4542
53.221,4582
53.308,4555
53.395,4629
53.482,4582
53.569,4407
53.656,4665
53.743,4565
53.83,4592
53.917,4772
54.004,5189
54.091,7338
54.178,11339
54.265,6634
54.352,5039
54.439,4978
54.526,4662
54.613,4611
54.7,4716
54.787,4550
54.874,4612
54.961,4586
55.048,4682
55.135,4611
55.222,4648
55.309,4665
55.396,4762
55.483,4636
55.57,4592
55.657,4721
55.744,4752
55.831,4757
55.918,5234
56.005,4931
56.092,4745
56.179,4734
56.266,4652
56.353,4627
56.44,4743
56.527,4552
56.614,4692
56.701,4581
56.788,4807
56.875,4700
56.962,4588
57.049,4521
57.136,4486
57.223,4400
57.31,4381
57.397,4409
57.484,4414
57.571,4381
57.658,4542
57.745,4352
57.832,4412
57.919,4476
58.006,4468
58.093,4689
58.18,4575
58.267,4725
58.354,4641
58.441,4659
58.528,4805
58.615,4742
58.702,4670
58.789,4761
58.876,4825
58.963,4975
59.05,5003
59.137,4695
59.224,4887
59.311,4972
59.398,5133
59.485,5387
59.572,6070
59.659,8782
59.746,21233
59.833,14356
59.92,7333
60.007,6332
60.094,6404
60.181,9975
60.268,18633
60.355,11120
60.442,6446
60.529,5459
60.616,5141
60.703,5094
60.79,5067
60.877,4962
60.964,4912
61.051,5024
61.138,4915
61.225,4773
61.312,4817
61.399,4898
61.486,4847
61.573,4982
61.66,4967
61.747,4909
61.834,5010
61.921,4870
62.008,4791
62.095,4967
62.182,5019
62.269,4962
62.356,4981
62.443,4938
62.53,4923
62.617,4958
62.704,4989
62.791,4961
62.878,5019
62.965,5327
63.052,5315
63.139,4962
63.226,4838
63.313,5011
63.4,4933
63.487,4881
63.574,4939
63.661,4747
63.748,4888
63.835,4812
63.922,4900
64.009,4911
64.096,4765
64.183,4866
64.27,4957
64.357,4925
64.444,5003
64.531,4882
64.618,5032
64.705,4931
64.792,4888
64.879,5060
64.966,5102
65.053,5226
65.14,5412
65.227,7103
65.314,11180
65.401,9446
65.488,6272
65.575,5382
65.662,5016
65.749,5191
65.836,5071
65.923,4881
66.01,5016
66.097,5023
66.184,5127
66.271,5097
66.358,5018
66.445,5050
66.532,5026
66.619,4967
66.706,5137
66.793,4981
66.88,5134
66.967,5072
67.054,5012
67.141,4876
67.228,5024
67.315,4978
67.402,5046
67.489,5194
67.576,5226
67.663,5694
67.75,7831
67.837,7924
67.924,5940
68.011,5424
68.098,5238
68.185,5280
68.272,5202
68.359,5078
68.446,5100
68.533,5085
68.62,5172
68.707,4977
68.794,4993
68.881,5099
68.968,5160
69.055,5172
69.142,5260
69.229,5388
69.316,5746
69.403,7650
69.49,13320
69.577,10025
69.664,6594
69.751,5666
69.838,5365
69.925,5345
70.012,5364
70.099,5201
70.186,5283
70.273,5173
70.36,5154
70.447,5302
70.534,5214
70.621,5104
70.708,5308
70.795,5458
70.882,5413
70.969,5324
71.056,5247
71.143,5230
71.23,5252
71.317,5181
71.404,5142
71.491,5086
71.578,5272
71.665,5203
71.752,5287
71.839,5529
71.926,6186
72.013,9704
72.1,10094
72.187,6780
72.274,5739
72.361,5400
72.448,5507
72.535,5442
72.622,5573
72.709,5603
72.796,5940
72.883,7458
72.97,10293
73.057,15037
73.144,11373
73.231,7356
73.318,5983
73.405,5518
73.492,5549
73.579,5486
73.666,5281
73.753,5306
73.84,5331
73.927,5168
74.014,5301
74.101,5291
74.188,5268
74.275,5283
74.362,5271
74.449,5346
74.536,5354
74.623,5301
74.71,5384
74.797,5335
74.884,5242
74.971,5299
75.058,5302
75.145,5318
75.232,5357
75.319,5201
75.406,5337
75.493,5631
75.58,6363
75.667,6370
75.754,5650
75.841,5413
75.928,5298
76.015,5373
76.102,5275
76.189,5290
76.276,5244
76.363,5374
76.45,5292
76.537,5369
76.624,5290
76.711,5317
76.798,5314
76.885,5306
76.972,5265
77.059,5466
77.146,5223
77.233,5314
77.32,5200
77.407,5302
77.494,5326
77.581,5247
77.668,5416
77.755,5264
77.842,5447
77.929,5316
78.016,5278
78.103,5416
78.19,5473
78.277,5930
78.364,6580
78.451,5991
78.538,5734
78.625,5550
78.712,5550
78.799,5471
78.886,5575
78.973,5502
79.06,5447
79.147,5448
79.234,5700
79.321,5769
79.408,6295
79.495,8318
79.582,6892
79.669,5933
79.756,5511
79.843,5422
79.93,5415
80.017,5459
80.104,5359
80.191,5315
80.278,5307
80.365,5456
80.452,5561
80.539,5331
80.626,5230
80.713,5266
80.8,5400
80.887,5316
80.974,5392
81.061,5252
81.148,5291
81.235,5418
81.322,5343
81.409,5214
81.496,5248
81.583,5234
81.67,5301
81.757,5253
81.844,5303
81.931,5357
82.018,5317
82.105,5339
82.192,5438
82.279,5363
82.366,5504
82.453,5530
82.54,5614
82.627,5673
82.714,6331
82.801,7245
82.888,6721
82.975,6850
83.062,6486
83.149,6858
83.236,7686
83.323,6685
83.41,5785
83.497,5518
83.584,5491
83.671,5433
83.758,5366
83.845,5602
83.932,5312
84.019,5391
84.106,5183
84.193,5224
84.28,5207
84.367,5174
84.454,5304
84.541,5348
84.628,5390
84.715,5413
84.802,5212
84.889,5302
84.976,5362
85.063,5400
85.15,5425
85.237,5947
85.324,6928
85.411,6790
85.498,5946
85.585,5445
85.672,5441
85.759,5418
85.846,5517
85.933,5541
86.02,5475
86.107,5409
86.194,5445
86.281,5507
86.368,5628
86.455,5802
86.542,5865
86.629,6621
86.716,9309
86.803,11692
86.89,8166
86.977,6335
87.064,5922
87.151,5866
87.238,5523
87.325,5632
87.412,5679
87.499,5499
87.586,5688
87.673,5659
87.76,6173
87.847,6170
87.934,5657
88.021,5528
88.108,5588
88.195,5667
88.282,5495
88.369,5494
88.456,5517
88.543,5499
88.63,5499
88.717,5459
88.804,5570
88.891,5698
88.978,5397
89.065,5598
89.152,5474
89.239,5409
89.326,5542
89.413,5579
89.5,5569
89.587,5480
89.674,5737
89.761,5782
89.848,6184
89.935,7891
90.022,9382
90.109,7212
90.196,5976
90.283,5627
90.37,5653
90.457,5512
90.544,5670
90.631,5434
90.718,5437
90.805,5465
90.892,5471
90.979,5446
91.066,5465
91.153,5458
91.24,5425
91.327,5428
91.414,5692
91.501,5756
91.588,6154
91.675,5675
91.762,5698
91.849,5545
91.936,5553
92.023,5668
92.11,5544
92.197,5567
92.284,5449
92.371,5384
92.458,5495
92.545,5532
92.632,5614
92.719,5774
92.806,6431
92.893,6283
92.98,5568
93.067,5544
93.154,5524
93.241,5452
93.328,5448
93.415,5333
93.502,5555
93.589,5458
93.676,5580
93.763,5448
93.85,5413
93.937,5393
94.024,5557
94.111,5537
94.198,5662
94.285,5685
94.372,5806
94.459,6509
94.546,8530
94.633,8654
94.72,7137
94.807,6675
94.894,7815
94.981,11125
95.068,11213
95.155,7903
95.242,6365
95.329,5792
95.416,5681
95.503,5372
95.59,5472
95.677,5484
95.764,5423
95.851,5440
95.938,5449
96.025,5422
96.112,5421
96.199,5598
96.286,5528
96.373,5539
96.46,5435
96.547,5367
96.634,5497
96.721,5576
96.808,5426
96.895,5466
96.982,5549
97.069,5544
97.156,5654
97.243,5933
97.33,5707
97.417,5914
97.504,6091
97.591,6231
97.678,7355
97.765,6828
97.852,6123
97.939,5907
98.026,5717
98.113,5674
98.2,5669
98.287,5754
98.374,5579
98.461,5565
98.548,5587
98.635,5515
98.722,5568
98.809,5414
98.896,5486
98.983,5431
99.07,5528
99.157,5671
99.244,5616
99.331,5346
99.418,5500
99.505,5671
99.592,5540
99.679,5560
99.766,5542
99.853,5590
99.94,5609
99.998,5611