File: data/xrd_icdd_PDF/00-055-0805 (PD3).csv
10,438
10.06,441
10.12,393
10.18,373
10.24,410
10.3,433
10.36,373
10.42,413
10.48,393
10.54,405
10.6,359
10.66,390
10.72,405
10.78,368
10.84,403
10.9,378
10.96,405
11.02,383
11.08,361
11.14,356
11.2,413
11.26,388
11.32,405
11.38,371
11.44,390
11.5,388
11.56,431
11.62,403
11.68,368
11.74,378
11.8,368
11.86,454
11.92,404
11.98,368
12.04,449
12.1,405
12.16,441
12.22,501
12.28,600
12.34,774
12.4,926
12.46,1190
12.52,1661
12.58,2463
12.64,3578
12.7,6320
12.76,12755
12.82,16304
12.88,5050
12.94,722
13,532
13.06,462
13.12,481
13.18,446
13.24,420
13.3,454
13.36,535
13.42,594
13.48,670
13.54,900
13.6,1122
13.66,1550
13.72,2370
13.78,3852
13.84,7988
13.9,11183
13.96,4080
14.02,657
14.08,449
14.14,441
14.2,378
14.26,371
14.32,342
14.38,354
14.44,347
14.5,324
14.56,359
14.62,331
14.68,313
14.74,304
14.8,354
14.86,354
14.92,322
14.98,354
15.04,329
15.1,354
15.16,322
15.22,298
15.28,315
15.34,345
15.4,311
15.46,331
15.52,320
15.58,304
15.64,345
15.7,278
15.76,315
15.82,338
15.88,308
15.94,333
16,342
16.06,322
16.12,338
16.18,287
16.24,331
16.3,304
16.36,291
16.42,331
16.48,345
16.54,315
16.6,335
16.66,349
16.72,324
16.78,352
16.84,315
16.9,311
16.96,347
17.02,331
17.08,326
17.14,329
17.2,326
17.26,331
17.32,361
17.38,415
17.44,506
17.5,676
17.56,1173
17.62,1314
17.68,689
17.74,410
17.8,335
17.86,378
17.92,428
17.98,546
18.04,889
18.1,1216
18.16,657
18.22,349
18.28,311
18.34,295
18.4,315
18.46,338
18.52,313
18.58,331
18.64,302
18.7,324
18.76,340
18.82,300
18.88,311
18.94,285
19,313
19.06,306
19.12,342
19.18,289
19.24,359
19.3,338
19.36,335
19.42,347
19.48,354
19.54,380
19.6,498
19.66,679
19.72,1036
19.78,1909
19.84,4040
19.9,5014
19.96,2099
20.02,529
20.08,383
20.14,345
20.2,322
20.26,298
20.32,324
20.38,306
20.44,320
20.5,304
20.56,322
20.62,317
20.68,333
20.74,354
20.8,308
20.86,340
20.92,345
20.98,398
21.04,473
21.1,452
21.16,444
21.22,405
21.28,436
21.34,576
21.4,795
21.46,1351
21.52,2763
21.58,6182
21.64,7634
21.7,2909
21.76,726
21.82,523
21.88,433
21.94,398
22,378
22.06,349
22.12,324
22.18,378
22.24,345
22.3,338
22.36,331
22.42,380
22.48,347
22.54,433
22.6,479
22.66,670
22.72,1040
22.78,830
22.84,457
22.9,302
22.96,308
23.02,324
23.08,313
23.14,335
23.2,333
23.26,349
23.32,405
23.38,495
23.44,802
23.5,1492
23.56,2730
23.62,1925
23.68,774
23.74,380
23.8,368
23.86,354
23.92,368
23.98,366
24.04,395
24.1,538
24.16,686
24.22,1118
24.28,2099
24.34,4307
24.4,3930
24.46,1521
24.52,492
24.58,380
24.64,363
24.7,376
24.76,332
24.82,392
24.88,361
24.94,340
25,331
25.06,352
25.12,354
25.18,340
25.24,347
25.3,400
25.36,366
25.42,366
25.48,454
25.54,541
25.6,644
25.66,977
25.72,1909
25.78,3386
25.84,2842
25.9,1287
25.96,644
26.02,644
26.08,550
26.14,586
26.2,608
26.26,586
26.32,679
26.38,653
26.44,760
26.5,1089
26.56,1748
26.62,3335
26.68,7788
26.74,19688
26.8,47388
26.86,49062
26.92,26712
26.98,8236
27.04,2413
27.1,1369
27.16,1541
27.22,2383
27.28,5139
27.34,12432
27.4,30998
27.46,29994
27.52,12321
27.58,2494
27.64,934
27.7,870
27.76,722
27.82,753
27.88,784
27.94,881
28,1122
28.06,1165
28.12,1251
28.18,2180
28.24,5238
28.3,12755
28.36,12656
28.42,5891
28.48,1473
28.54,791
28.6,716
28.66,634
28.72,878
28.78,1269
28.84,2352
28.9,5729
28.96,14280
29.02,31263
29.08,28709
29.14,12698
29.2,2842
29.26,1004
29.32,777
29.38,644
29.44,650
29.5,512
29.56,535
29.62,555
29.68,579
29.74,512
29.8,555
29.86,683
29.92,1114
29.98,2322
30.04,5532
30.1,7667
30.16,7999
30.22,14087
30.28,15594
30.34,8418
30.4,2557
30.46,859
30.52,644
30.58,716
30.64,996
30.7,1640
30.76,3767
30.82,10025
30.88,21025
30.94,16560
31,7257
31.06,1531
31.12,753
31.18,564
31.24,518
31.3,449
31.36,415
31.42,428
31.48,385
31.54,359
31.6,363
31.66,366
31.72,403
31.78,329
31.84,410
31.9,361
31.96,418
32.02,438
32.08,428
32.14,410
32.2,413
32.26,403
32.32,423
32.38,444
32.44,403
32.5,375
32.56,418
32.62,433
32.68,444
32.74,465
32.8,462
32.86,490
32.92,495
32.98,561
33.04,670
33.1,739
33.16,802
33.22,1143
33.28,2014
33.34,5211
33.4,14671
33.46,21207
33.52,14325
33.58,8361
33.64,11051
33.7,21683
33.76,17490
33.82,9120
33.88,2538
33.94,904
34,670
34.06,600
34.12,558
34.18,549
34.24,609
34.3,689
34.36,1077
34.42,2274
34.48,6360
34.54,12868
34.6,11759
34.66,9312
34.72,6182
34.78,3653
34.84,1844
34.9,867
34.96,555
35.02,520
35.08,512
35.14,476
35.2,512
35.26,588
35.32,900
35.38,1640
35.44,4414
35.5,5862
35.56,4778
35.62,4481
35.68,3922
35.74,2450
35.8,1251
35.86,564
35.92,454
35.98,465
36.04,564
36.1,911
36.16,1833
36.22,1780
36.28,1234
36.34,746
36.4,454
36.46,444
36.52,509
36.58,743
36.64,1406
36.7,1406
36.76,1369
36.82,2087
36.88,5068
36.94,5504
37,3459
37.06,1570
37.12,597
37.18,438
37.24,428
37.3,415
37.36,446
37.42,405
37.48,385
37.54,449
37.6,498
37.66,470
37.72,436
37.78,383
37.84,363
37.9,388
37.96,410
38.02,395
38.08,410
38.14,501
38.2,915
38.26,1156
38.32,949
38.38,679
38.44,460
38.5,395
38.56,380
38.62,390
38.68,418
38.74,415
38.8,433
38.86,428
38.92,549
38.98,834
39.04,1696
39.1,3775
39.16,5175
39.22,7943
39.28,6340
39.34,3860
39.4,1986
39.46,1681
39.52,4144
39.58,7558
39.64,5977
39.7,3706
39.76,1585
39.82,631
39.88,532
39.94,441
40,449
40.06,457
40.12,449
40.18,457
40.24,541
40.3,863
40.36,1920
40.42,2316
40.48,1661
40.54,1106
40.6,709
40.66,904
40.72,1296
40.78,1052
40.84,1160
40.9,1392
40.96,3691
41.02,8044
41.08,6889
41.14,4616
41.2,2065
41.26,791
41.32,638
41.38,679
41.44,1186
41.5,2093
41.56,3459
41.62,4193
41.68,3444
41.74,2395
41.8,1203
41.86,686
41.92,484
41.98,398
42.04,431
42.1,452
42.16,460
42.22,400
42.28,415
42.34,446
42.4,436
42.46,606
42.52,1073
42.58,1346
42.64,1004
42.7,885
42.76,634
42.82,644
42.88,647
42.94,622
43,579
43.06,526
43.12,501
43.18,449
43.24,465
43.3,452
43.36,509
43.42,512
43.48,622
43.54,984
43.6,863
43.66,881
43.72,795
43.78,837
43.84,1177
43.9,2494
43.96,7385
44.02,18479
44.08,18073
44.14,12059
44.2,7332
44.26,2639
44.32,1881
44.38,2036
44.44,2756
44.5,2128
44.56,2209
44.62,3235
44.68,4298
44.74,2802
44.8,2133
44.86,1052
44.92,573
44.98,564
45.04,541
45.1,736
45.16,1012
45.22,1085
45.28,1012
45.34,760
45.4,622
45.46,558
45.52,576
45.58,638
45.64,859
45.7,1406
45.76,3129
45.82,9764
45.88,16738
45.94,13168
46,11091
46.06,5320
46.12,2292
46.18,919
46.24,719
46.3,653
46.36,692
46.42,1064
46.48,911
46.54,823
46.6,594
46.66,561
46.72,515
46.78,774
46.84,1600
46.9,3759
46.96,4024
47.02,2842
47.08,2215
47.14,1085
47.2,760
47.26,961
47.32,1898
47.38,4096
47.44,7558
47.5,5495
47.56,4056
47.62,2401
47.68,823
47.74,573
47.8,503
47.86,535
47.92,739
47.98,1020
48.04,1032
48.1,1283
48.16,2698
48.22,4883
48.28,3645
48.34,2717
48.4,1860
48.46,743
48.52,518
48.58,452
48.64,512
48.7,558
48.76,763
48.82,946
48.88,692
48.94,699
49,644
49.06,634
49.12,915
49.18,2280
49.24,5148
49.3,4926
49.36,2998
49.42,2691
49.48,1169
49.54,915
49.6,1759
49.66,3914
49.72,3883
49.78,3108
49.84,3306
49.9,2151
49.96,1817
50.02,1156
50.08,949
50.14,628
50.2,484
50.26,428
50.32,436
50.38,441
50.44,433
50.5,398
50.56,415
50.62,415
50.68,408
50.74,454
50.8,484
50.86,552
50.92,706
50.98,576
51.04,567
51.1,609
51.16,594
51.22,889
51.28,2070
51.34,3867
51.4,3415
51.46,2909
51.52,2025
51.58,1156
51.64,679
51.7,535
51.76,487
51.82,490
51.88,503
51.94,588
52,867
52.06,1378
52.12,1278
52.18,1314
52.24,1854
52.3,4184
52.36,6775
52.42,5356
52.48,4144
52.54,4701
52.6,7236
52.66,6430
52.72,3985
52.78,5103
52.84,4080
52.9,2395
52.96,2065
53.02,1645
53.08,1292
53.14,1411
53.2,1032
53.26,1139
53.32,1265
53.38,1004
53.44,774
53.5,670
53.56,585
53.62,476
53.68,446
53.74,454
53.8,449
53.86,454
53.92,420
53.98,413
54.04,410
54.1,462
54.16,473
54.22,495
54.28,848
54.34,1696
54.4,2310
54.46,2019
54.52,2221
54.58,1909
54.64,1806
54.7,2116
54.76,1605
54.82,1310
54.88,1600
54.94,2082
55,1650
55.06,1397
55.12,1550
55.18,1748
55.24,2203
55.3,2531
55.36,1812
55.42,1953
55.48,1615
55.54,896
55.6,830
55.66,644
55.72,576
55.78,546
55.84,689
55.9,1081
55.96,1806
56.02,1686
56.08,1892
56.14,3488
56.2,3452
56.26,2304
56.32,2389
56.38,1997
56.44,2191
56.5,2796
56.56,3474
56.62,5560
56.68,5968
56.74,3452
56.8,3299
56.86,2274
56.92,1208
56.98,1610
57.04,3080
57.1,3898
57.16,2639
57.22,2358
57.28,2116
57.34,1775
57.4,2481
57.46,5560
57.52,8100
57.58,8942
57.64,10075
57.7,6104
57.76,4709
57.82,3511
57.88,2048
57.94,2197
58,1511
58.06,1346
58.12,1256
58.18,774
58.24,609
58.3,609
58.36,591
58.42,622
58.48,1093
58.54,2816
58.6,3357
58.66,2233
58.72,2070
58.78,1790
58.84,977
58.9,613
58.96,538
59.02,555
59.08,555
59.14,673
59.2,1314
59.26,2776
59.32,2550
59.38,1492
59.44,1671
59.5,1199
59.56,561
59.62,476
59.68,468
59.74,425
59.8,408
59.86,462
59.92,561
59.98,767
60.04,1337
60.1,1265
60.16,881
60.22,1052
60.28,791
60.34,809
60.4,1036
60.46,1110
60.52,1008
60.58,984
60.64,1545
60.7,2238
60.76,2711
60.82,2488
60.88,2842
60.94,3533
61,3466
61.06,2776
61.12,2639
61.18,1947
61.24,1323
61.3,1020
61.36,663
61.42,501
61.48,380
61.54,438
61.6,454
61.66,465
61.72,567
61.78,809
61.84,683
61.9,570
61.96,603
62.02,506
62.08,526
62.14,479
62.2,457
62.26,588
62.32,1024
62.38,2191
62.44,1986
62.5,1511
62.56,1754
62.62,1328
62.68,1064
62.74,1595
62.8,2717
62.86,2413
62.92,2776
62.98,3249
63.04,2963
63.1,4331
63.16,4331
63.22,2227
63.28,2145
63.34,1947
63.4,795
63.46,588
63.52,509
63.58,515
63.64,597
63.7,784
63.76,686
63.82,644
63.88,716
63.94,760
64,1032
64.06,2110
64.12,2122
64.18,2557
64.24,2829
64.3,2776
64.36,2563
64.42,1881
64.48,1346
64.54,1089
64.6,749
64.66,515
64.72,413
64.78,446
64.84,425
64.9,420
64.96,465
65.02,526
65.08,515
65.14,722
65.2,881
65.26,673
65.32,657
65.38,689
65.44,686
65.5,1212
65.56,2292
65.62,2316
65.68,1696
65.74,1565
65.8,1374
65.86,969
65.92,706
65.98,470
66.04,473
66.1,462
66.16,465
66.22,473
66.28,641
66.34,870
66.4,716
66.46,579
66.52,634
66.58,591
66.64,462
66.7,492
66.76,529
66.82,638
66.88,973
66.94,1364
67,1590
67.06,2698
67.12,2698
67.18,1392
67.24,1477
67.3,1482
67.36,1118
67.42,911
67.48,616
67.54,613
67.6,650
67.66,555
67.72,523
67.78,558
67.84,812
67.9,679
67.96,543
68.02,622
68.08,641
68.14,498
68.2,484
68.26,585
68.32,706
68.38,904
68.44,1383
68.5,1931
68.56,1630
68.62,1492
68.68,1754
68.74,1759
68.8,1301
68.86,1580
68.92,1980
68.98,1346
69.04,915
69.1,1028
69.16,819
69.22,576
69.28,506
69.34,498
69.4,561
69.46,609
69.52,980
69.58,2019
69.64,2909
69.7,2450
69.76,2133
69.82,2065
69.88,1790
69.94,1274
70,827
70.06,709
70.12,798
70.18,1203
70.24,1305
70.3,1186
70.36,1212
70.42,1256
70.48,1595
70.54,2280
70.6,2099
70.66,1676
70.72,1942
70.78,1707
70.84,1260
70.9,1269
70.96,1106
71.02,1012
71.08,1028
71.14,837
71.2,726
71.26,729
71.32,683
71.38,777
71.44,1190
71.5,2019
71.56,2525
71.62,1650
71.68,1337
71.74,1565
71.8,1374
71.86,1560
71.92,2869
71.98,2633
72.04,1425
72.1,1536
72.16,1625
72.22,1110
72.28,784
72.34,798
72.4,904
72.46,795
72.52,926
72.58,1221
72.64,1482
72.7,2274
72.76,2991
72.82,2180
72.88,1545
72.94,1738
73,1531
73.06,1173
73.12,1364
73.18,1876
73.24,2059
73.3,1942
73.36,1707
73.42,1600
73.48,1287
73.54,988
73.6,827
73.66,774
73.72,663
73.78,722
73.84,653
73.9,784
73.96,1101
74.02,1615
74.08,1234
74.14,904
74.2,1012
74.26,969
74.32,791
74.38,663
74.44,753
74.5,809
74.56,1169
74.62,1822
74.68,1521
74.74,919
74.8,996
74.86,1374
74.92,1355
74.98,1849
75.04,1975
75.1,1190
75.16,1044
75.22,1341
75.28,1101
75.34,823
75.4,1032
75.46,1975
75.52,3185
75.58,3548
75.64,3101
75.7,2450
75.76,2588
75.82,2607
75.88,2048
75.94,1560
76,1256
76.06,973
76.12,834
76.18,699
76.24,600
76.3,495
76.36,413
76.42,408
76.48,388
76.54,441
76.6,418
76.66,438
76.72,436
76.78,481
76.84,512
76.9,529
76.96,746
77.02,1416
77.08,2014
77.14,1854
77.2,1337
77.26,1691
77.32,2401
77.38,1759
77.44,1004
77.5,867
77.56,1040
77.62,809
77.68,631
77.74,760
77.8,777
77.86,689
77.92,859
77.98,1274
78.04,1332
78.1,957
78.16,867
78.22,949
78.28,911
78.34,819
78.4,863
78.46,1004
78.52,2019
78.58,3306
78.64,2191
78.7,1274
78.76,1615
78.82,2087
78.88,1817
78.94,1702
79,1931
79.06,1681
79.12,1101
79.18,1077
79.24,1101
79.3,915
79.36,702
79.42,660
79.48,597
79.54,512
79.6,460
79.66,492
79.72,490
79.78,492
79.84,410
79.9,529
79.96,582
80.02,576
80.08,588
80.14,856
80.2,1388
80.26,1555
80.32,1364
80.38,1032
80.44,1110
80.5,1064
80.56,904
80.62,719
80.68,795
80.74,788
80.8,791
80.86,722
80.92,699
80.98,692
81.04,722
81.1,689
81.16,638
81.22,774
81.28,896
81.34,653
81.4,561
81.46,603
81.52,638
81.58,501
81.64,481
81.7,512
81.76,631
81.82,885
81.88,1328
81.94,1216
82,856
82.06,837
82.12,893
82.18,889
82.24,683
82.3,798
82.36,942
82.42,845
82.48,709
82.54,885
82.6,1374
82.66,2105
82.72,2383
82.78,1605
82.84,1212
82.9,1305
82.96,1511
83.02,1093
83.08,722
83.14,603
83.2,576
83.26,784
83.32,1190
83.38,2525
83.44,2525
83.5,1269
83.56,930
83.62,1296
83.68,1595
83.74,973
83.8,650
83.86,529
83.92,576
83.98,625
84.04,837
84.1,1411
84.16,2191
84.22,1570
84.28,1028
84.34,1036
84.4,1392
84.46,1278
84.52,900
84.58,706
84.64,606
84.7,616
84.76,663
84.82,591
84.88,526
84.94,529
85,594
85.06,719
85.12,980
85.18,1360
85.24,1585
85.3,1585
85.36,1411
85.42,1681
85.48,2262
85.54,2076
85.6,1411
85.66,1097
85.72,1229
85.78,1212
85.84,1004
85.9,969
85.96,845
86.02,885
86.08,1077
86.14,1160
86.2,1195
86.26,1073
86.32,926
86.38,1064
86.44,1411
86.5,1630
86.56,1036
86.62,739
86.68,819
86.74,942
86.8,930
86.86,753
86.92,919
86.98,805
87.04,702
87.1,749
87.16,900
87.22,848
87.28,679
87.34,573
87.4,628
87.46,736
87.52,657
87.58,558
87.64,552
87.7,973
87.76,1580
87.82,1425
87.88,848
87.94,660
88,896
88.06,1068
88.12,837
88.18,867
88.24,774
88.3,830
88.36,837
88.42,949
88.48,1247
88.54,1256
88.6,934
88.66,746
88.72,805
88.78,1016
88.84,1032
88.9,777
88.96,650
89.02,760
89.08,965
89.14,965
89.2,837
89.26,739
89.32,650
89.38,706
89.44,660
89.5,774
89.56,726
89.62,538
89.68,473
89.74,509
89.8,613
89.86,683
89.92,613
89.98,613
90.04,628
90.1,904
90.16,1374
90.22,1425
90.28,1077
90.34,900
90.4,1328
90.46,1759
90.52,1314
90.58,878
90.64,739
90.7,893
90.76,1060
90.82,1020
90.88,1346
90.94,1733
91,1360
91.06,1243
91.12,1305
91.18,1388
91.24,1355
91.3,1114
91.36,867
91.42,716
91.48,634
91.54,641
91.6,523
91.66,479
91.72,503
91.78,570
91.84,523
91.9,512
91.96,567
92.02,567
92.08,520
92.14,526
92.2,576
92.26,726
92.32,1020
92.38,1004
92.44,712
92.5,660
92.56,763
92.62,900
92.68,852
92.74,597
92.8,512
92.86,535
92.92,535
92.98,444
93.04,490
93.1,582
93.16,653
93.22,628
93.28,719
93.34,616
93.4,619
93.46,670
93.52,692
93.58,663
93.64,798
93.7,900
93.76,722
93.82,597
93.88,722
93.94,1032
94,1374
94.06,1173
94.12,1004
94.18,1032
94.24,1351
94.3,1812
94.36,1986
94.42,2003
94.48,1707
94.54,1402
94.6,1221
94.66,1131
94.72,1118
94.78,980
94.84,837
94.9,625
94.96,549
95.02,487
95.08,484
95.14,444
95.2,400
95.26,423
95.32,393
95.38,512
95.44,573
95.5,885
95.56,1216
95.62,1439
95.68,1310
95.74,1077
95.8,878
95.86,957
95.92,1032
95.98,926
96.04,726
96.1,600
96.16,518
96.22,549
96.28,503
96.34,555
96.4,856
96.46,1160
96.52,1186
96.58,1089
96.64,984
96.7,823
96.76,961
96.82,1126
96.88,930
96.94,908
97,791
97.06,763
97.12,726
97.18,889
97.24,1028
97.3,977
97.36,845
97.42,798
97.48,977
97.54,1122
97.6,1351
97.66,1296
97.72,1118
97.78,1064
97.84,977
97.9,1032
97.96,988
98.02,900
98.08,812
98.14,784
98.2,736
98.26,702
98.32,686
98.38,756
98.44,802
98.5,837
98.56,893
98.62,679
98.68,663
98.74,686
98.8,689
98.86,689
98.92,594
98.98,509
99.04,526
99.1,492
99.16,498
99.22,585
99.28,699
99.34,827
99.4,746
99.46,732
99.52,908
99.58,1328
99.64,2203
99.7,2856
99.76,2168
99.82,1314
99.88,1203
99.94,1430
99.98,1655