File: data/xrd_icdd_PDF/00-071-0802 (PD3).csv
6.13022,59.17234
6.17022,60.83207
6.21022,70.14755
6.25022,62.81563
6.29022,64.86777
6.33022,56.67648
6.37022,62.60521
6.41022,66.92884
6.45022,67.21128
6.49022,63.74184
6.53022,70.17642
6.57022,70.07499
6.61022,61.78379
6.65022,61.60269
6.69022,59.71357
6.73022,63.3342
6.77022,61.33566
6.81022,54.12854
6.85022,68.40968
6.89022,61.73746
6.93022,70.10813
6.97022,59.63712
7.01022,59.21643
7.05022,60.10127
7.09022,68.65045
7.13022,56.65257
7.17022,68.10075
7.21022,69.61045
7.25022,69.84418
7.29022,62.59401
7.33022,64.57536
7.37022,63.15968
7.41022,63.60722
7.45022,68.60217
7.49022,66.72817
7.53022,69.51761
7.57022,65.43683
7.61022,63.84997
7.65022,68.79391
7.69022,75.96718
7.73022,67.21031
7.77022,65.85103
7.81022,61.64689
7.85022,67.07992
7.89022,65.32384
7.93022,64.04595
7.97022,62.09108
8.01022,64.96766
8.05022,62.64779
8.09022,66.84841
8.13022,72.40517
8.17022,76.2724
8.21022,71.10415
8.25022,58.6956
8.29022,69.70228
8.33022,61.96071
8.37022,62.72352
8.41022,64.20904
8.45022,62.11979
8.49022,65.49555
8.53022,66.89368
8.57022,66.14074
8.61022,57.2338
8.65022,68.26736
8.69022,78.74329
8.73022,67.7909
8.77022,70.14799
8.81022,66.28085
8.85022,71.25539
8.89022,68.76785
8.93022,68.86146
8.97022,62.82034
9.01022,72.26973
9.05022,71.20659
9.09022,68.02547
9.13022,65.63836
9.17022,71.56133
9.21022,66.95531
9.25022,73.90733
9.29022,65.66891
9.33022,64.56328
9.37022,60.99001
9.41022,67.2058
9.45022,63.51042
9.49022,68.04478
9.53022,67.02654
9.57022,67.37895
9.61022,66.2942
9.65022,70.53768
9.69022,66.88765
9.73022,66.64292
9.77022,65.8152
9.81022,56.30557
9.85022,68.01143
9.89022,63.93821
9.93022,64.90094
9.97022,70.57214
10.01022,66.66029
10.05022,76.10186
10.09022,54.73475
10.13022,68.86433
10.17022,58.93816
10.21022,71.93015
10.25022,60.81404
10.29022,58.49444
10.33022,70.79852
10.37022,72.22686
10.41022,57.98535
10.45022,69.13348
10.49022,61.12108
10.53022,59.16572
10.57022,69.87471
10.61022,64.26977
10.65022,73.2986
10.69022,62.33168
10.73022,66.75115
10.77022,70.33287
10.81022,62.48079
10.85022,63.2582
10.89022,62.77299
10.93022,68.84542
10.97022,69.30432
11.01022,66.3177
11.05022,62.48986
11.09022,64.5539
11.13022,66.95954
11.17022,57.87581
11.21022,61.27862
11.25022,72.07523
11.29022,55.10336
11.33022,65.88503
11.37022,55.11697
11.41022,61.79732
11.45022,65.07031
11.49022,70.4043
11.53022,64.26157
11.57022,57.45079
11.61022,66.25309
11.65022,67.24036
11.69022,65.77743
11.73022,51.34358
11.77022,60.68621
11.81022,56.82884
11.85022,61.13479
11.89022,59.99642
11.93022,62.27826
11.97022,55.85946
12.01022,62.40245
12.05022,71.11936
12.09022,67.73396
12.13022,73.18334
12.17022,75.02223
12.21022,116.047
12.25022,173.239
12.29022,323.427
12.33022,623.041
12.37022,742.472
12.41022,434.353
12.45022,166.135
12.49022,88.0967
12.53022,80.47555
12.57022,69.50009
12.61022,58.44975
12.65022,63.77258
12.69022,71.60745
12.73022,69.0299
12.77022,72.21684
12.81022,73.92707
12.85022,60.85467
12.89022,55.2038
12.93022,63.01352
12.97022,59.03639
13.01022,53.84583
13.05022,57.65116
13.09022,69.71001
13.13022,59.75628
13.17022,68.27615
13.21022,64.84065
13.25022,67.99657
13.29022,59.22766
13.33022,56.16573
13.37022,58.75572
13.41022,58.35455
13.45022,61.25505
13.49022,63.74247
13.53022,65.69384
13.57022,58.99902
13.61022,63.25014
13.65022,66.34213
13.69022,52.16232
13.73022,64.2556
13.77022,73.47199
13.81022,69.49929
13.85022,65.696
13.89022,60.22615
13.93022,60.51319
13.97022,59.2864
14.01022,60.27381
14.05022,61.30933
14.09022,55.18515
14.13022,64.92657
14.17022,56.43925
14.21022,65.43482
14.25022,55.1543
14.29022,57.1812
14.33022,57.30653
14.37022,56.64811
14.41022,68.65002
14.45022,62.28106
14.49022,58.97432
14.53022,63.94568
14.57022,59.17467
14.61022,58.06299
14.65022,58.5977
14.69022,62.34862
14.73022,61.05352
14.77022,65.1027
14.81022,55.68756
14.85022,64.42342
14.89022,64.73615
14.93022,66.76352
14.97022,61.56043
15.01022,63.32307
15.05022,66.60038
15.09022,62.3818
15.13022,59.1307
15.17022,60.90115
15.21022,62.04854
15.25022,63.08094
15.29022,68.73424
15.33022,59.82155
15.37022,61.84133
15.41022,61.05048
15.45022,55.90993
15.49022,53.20183
15.53022,67.86627
15.57022,58.77032
15.61022,64.41339
15.65022,61.03467
15.69022,66.40897
15.73022,63.66944
15.77022,57.45995
15.81022,53.86869
15.85022,57.31428
15.89022,51.50071
15.93022,64.75778
15.97022,60.79273
16.01022,65.4463
16.05022,56.26529
16.09022,62.97756
16.13022,60.91742
16.17022,63.13732
16.21022,63.60142
16.25022,52.44898
16.29022,59.25522
16.33022,63.07424
16.37022,60.38577
16.41022,67.70946
16.45022,57.52421
16.49022,61.8595
16.53022,67.7358
16.57022,70.14902
16.61022,70.44366
16.65022,69.38828
16.69022,62.84287
16.73022,58.37295
16.77022,63.61623
16.81022,67.6772
16.85022,69.68209
16.89022,74.36916
16.93022,72.29533
16.97022,60.3508
17.01022,68.69223
17.05022,76.51063
17.09022,81.30658
17.13022,96.38744
17.17022,86.48093
17.21022,91.70625
17.25022,96.7746
17.29022,93.11301
17.33022,88.85285
17.37022,87.63139
17.41022,77.76509
17.45022,67.0737
17.49022,64.28858
17.53022,64.24444
17.57022,65.1644
17.61022,57.09481
17.65022,60.03021
17.69022,66.75766
17.73022,64.54353
17.77022,62.1009
17.81022,63.25435
17.85022,59.92164
17.89022,70.49103
17.93022,76.41806
17.97022,61.85353
18.01022,56.97552
18.05022,62.11877
18.09022,70.44779
18.13022,63.2847
18.17022,65.48392
18.21022,68.25707
18.25022,68.88494
18.29022,68.16837
18.33022,73.5956
18.37022,84.41259
18.41022,80.68644
18.45022,94.05834
18.49022,105.694
18.53022,172.4347
18.57022,258.847
18.61022,523.825
18.65022,995.135
18.69022,1618.45
18.73022,1759.69
18.77022,1103.17
18.81022,508.109
18.85022,248.563
18.89022,154.217
18.93022,119.899
18.97022,82.10707
19.01022,85.7914
19.05022,78.5641
19.09022,70.36077
19.13022,74.53204
19.17022,67.56978
19.21022,70.73832
19.25022,63.92005
19.29022,56.78487
19.33022,62.11298
19.37022,64.73744
19.41022,64.59443
19.45022,71.2745
19.49022,79.74493
19.53022,89.35327
19.57022,77.72899
19.61022,68.27446
19.65022,75.85653
19.69022,74.72019
19.73022,65.47956
19.77022,67.52782
19.81022,73.79266
19.85022,75.82384
19.89022,79.91894
19.93022,75.25395
19.97022,63.21709
20.01022,65.27557
20.05022,57.32126
20.09022,64.12964
20.13022,64.18506
20.17022,56.84022
20.21022,54.40781
20.25022,58.51158
20.29022,61.56017
20.33022,61.19268
20.37022,61.83519
20.41022,59.10357
20.45022,65.44766
20.49022,66.128
20.53022,60.2035
20.57022,53.9753
20.61022,64.29876
20.65022,61.59417
20.69022,54.37222
20.73022,59.28782
20.77022,57.0922
20.81022,55.36046
20.85022,69.42851
20.89022,62.32385
20.93022,65.80664
20.97022,64.49785
21.01022,54.67393
21.05022,61.55525
21.09022,62.12118
21.13022,58.1118
21.17022,66.47223
21.21022,62.16156
21.25022,71.23484
21.29022,78.49853
21.33022,88.14761
21.37022,160.106
21.41022,318.155
21.45022,660.483
21.49022,1065.25
21.53022,901.257
21.57022,482.868
21.61022,216.077
21.65022,111.023
21.69022,83.99379
21.73022,62.38621
21.77022,61.87288
21.81022,56.94288
21.85022,53.50861
21.89022,49.80968
21.93022,66.44164
21.97022,66.83706
22.01022,57.77791
22.05022,59.75793
22.09022,62.92414
22.13022,53.4573
22.17022,50.27433
22.21022,54.58933
22.25022,59.39074
22.29022,52.10313
22.33022,48.71648
22.37022,59.01424
22.41022,50.48057
22.45022,50.4118
22.49022,52.82145
22.53022,56.57105
22.57022,51.49419
22.61022,44.04116
22.65022,58.27764
22.69022,49.52958
22.73022,46.56617
22.77022,46.95349
22.81022,54.17675
22.85022,61.04165
22.89022,51.73102
22.93022,52.27165
22.97022,48.70606
23.01022,55.19177
23.05022,55.16783
23.09022,46.0216
23.13022,52.60374
23.17022,54.33611
23.21022,52.00888
23.25022,55.85355
23.29022,49.48879
23.33022,39.20926
23.37022,52.45423
23.41022,50.80307
23.45022,54.03416
23.49022,48.62018
23.53022,47.05248
23.57022,54.92743
23.61022,44.95361
23.65022,52.04318
23.69022,51.60882
23.73022,47.35458
23.77022,47.74169
23.81022,53.86686
23.85022,47.74703
23.89022,48.82856
23.93022,51.89505
23.97022,48.43332
24.01022,41.4393
24.05022,52.89542
24.09022,55.00672
24.13022,48.22561
24.17022,50.71191
24.21022,47.75644
24.25022,48.12186
24.29022,48.72358
24.33022,50.96006
24.37022,50.42583
24.41022,48.63453
24.45022,49.95311
24.49022,51.53015
24.53022,56.75529
24.57022,53.83194
24.61022,55.20535
24.65022,60.88106
24.69022,59.91112
24.73022,76.84531
24.77022,123.487
24.81022,223.919
24.85022,410.7256
24.89022,454.323
24.93022,301.333
24.97022,153.065
25.01022,90.9277
25.05022,59.98984
25.09022,66.92341
25.13022,65.18103
25.17022,56.10389
25.21022,44.49661
25.25022,51.04474
25.29022,46.22459
25.33022,42.19572
25.37022,50.25645
25.41022,46.95874
25.45022,40.68056
25.49022,51.76425
25.53022,44.5403
25.57022,50.66706
25.61022,57.80693
25.65022,52.75458
25.69022,42.63594
25.73022,53.10148
25.77022,50.83883
25.81022,54.62883
25.85022,52.28782
25.89022,55.6
25.93022,54.4346
25.97022,47.59507
26.01022,45.62384
26.05022,50.00398
26.09022,52.39964
26.13022,48.40775
26.17022,48.71036
26.21022,54.43433
26.25022,53.06208
26.29022,59.5249
26.33022,45.61038
26.37022,41.91217
26.41022,49.60946
26.45022,53.11447
26.49022,52.79332
26.53022,58.90904
26.57022,52.0839
26.61022,51.62129
26.65022,54.116
26.69022,47.91955
26.73022,51.26264
26.77022,58.33683
26.81022,58.49201
26.85022,49.49252
26.89022,55.46146
26.93022,53.81937
26.97022,46.44839
27.01022,54.27583
27.05022,51.83116
27.09022,46.66157
27.13022,44.3116
27.17022,63.54049
27.21022,43.08305
27.25022,54.26785
27.29022,53.3462
27.33022,42.3609
27.37022,48.40183
27.41022,51.04787
27.45022,45.46448
27.49022,48.25979
27.53022,45.29824
27.57022,48.24774
27.61022,45.06169
27.65022,50.33695
27.69022,59.73357
27.73022,53.23558
27.77022,61.29926
27.81022,65.2142
27.85022,58.72414
27.89022,65.72672
27.93022,66.89866
27.97022,73.32535
28.01022,85.56156
28.05022,107.8116
28.09022,128.018
28.13022,181.32
28.17022,267.037
28.21022,292.521
28.25022,254.268
28.29022,168.219
28.33022,119.263
28.37022,95.32498
28.41022,109.24
28.45022,108.289
28.49022,153.088
28.53022,248.976
28.57022,461.497
28.61022,781.834
28.65022,1116.4
28.69022,998.741
28.73022,664.584
28.77022,308.384
28.81022,168.963
28.85022,101.995
28.89022,69.30414
28.93022,65.53704
28.97022,49.69913
29.01022,60.33582
29.05022,55.73335
29.09022,48.21115
29.13022,54.65216
29.17022,41.53525
29.21022,48.97224
29.25022,48.04435
29.29022,54.30799
29.33022,42.80411
29.37022,41.14386
29.41022,39.30516
29.45022,42.03638
29.49022,41.85755
29.53022,39.49062
29.57022,39.23777
29.61022,36.1391
29.65022,34.09917
29.69022,41.79573
29.73022,40.86274
29.77022,39.63398
29.81022,35.26763
29.85022,45.89907
29.89022,42.1884
29.93022,39.13439
29.97022,44.7656
30.01022,40.69689
30.05022,40.86396
30.09022,39.8719
30.13022,30.85246
30.17022,47.1091
30.21022,34.65579
30.25022,44.7341
30.29022,40.51006
30.33022,39.17337
30.37022,38.20414
30.41022,30.76655
30.45022,47.66378
30.49022,40.24144
30.53022,41.3654
30.57022,40.32399
30.61022,40.06121
30.65022,38.74627
30.69022,34.73808
30.73022,43.51566
30.77022,44.15328
30.81022,52.28684
30.85022,58.66792
30.89022,80.05919
30.93022,65.59678
30.97022,55.66292
31.01022,42.96282
31.05022,40.05496
31.09022,45.90786
31.13022,37.89105
31.17022,35.88515
31.21022,39.70423
31.25022,35.73864
31.29022,41.83282
31.33022,34.25569
31.37022,35.69625
31.41022,33.24975
31.45022,28.26191
31.49022,31.16075
31.53022,39.65205
31.57022,38.53129
31.61022,32.31743
31.65022,30.91491
31.69022,35.18613
31.73022,30.52536
31.77022,34.56522
31.81022,34.83063
31.85022,29.08424
31.89022,35.12572
31.93022,38.2017
31.97022,32.42864
32.01022,31.02503
32.05022,29.72088
32.09022,30.44483
32.13022,28.07445
32.17022,31.29541
32.21022,24.14428
32.25022,32.77041
32.29022,40.85492
32.33022,37.70238
32.37022,34.08309
32.41022,33.71368
32.45022,29.33172
32.49022,36.29897
32.53022,35.30811
32.57022,28.84466
32.61022,28.43124
32.65022,29.97488
32.69022,30.04871
32.73022,33.59573
32.77022,35.63818
32.81022,28.09022
32.85022,34.24403
32.89022,35.14955
32.93022,34.14361
32.97022,44.34109
33.01022,48.06439
33.05022,58.77524
33.09022,70.13138
33.13022,82.39665
33.17022,69.60889
33.21022,51.56891
33.25022,44.86453
33.29022,35.2865
33.33022,37.89275
33.37022,38.98344
33.41022,30.14858
33.45022,35.55131
33.49022,35.66048
33.53022,28.73318
33.57022,36.20347
33.61022,33.93921
33.65022,23.47833
33.69022,35.8675
33.73022,27.14575
33.77022,29.74081
33.81022,28.20874
33.85022,30.33808
33.89022,26.02543
33.93022,31.00805
33.97022,28.07055
34.01022,31.57655
34.05022,33.59449
34.09022,24.82267
34.13022,30.469
34.17022,35.47918
34.21022,29.7984
34.25022,29.84958
34.29022,31.10252
34.33022,24.92472
34.37022,25.4804
34.41022,27.32609
34.45022,33.00944
34.49022,29.99109
34.53022,27.68517
34.57022,30.34217
34.61022,32.24864
34.65022,29.96918
34.69022,27.04708
34.73022,31.39406
34.77022,28.44209
34.81022,29.30571
34.85022,35.66103
34.89022,33.02698
34.93022,33.89787
34.97022,39.55683
35.01022,33.37182
35.05022,35.55346
35.09022,29.1351
35.13022,25.8693
35.17022,28.99087
35.21022,26.87939
35.25022,37.27136
35.29022,29.73654
35.33022,34.06522
35.37022,33.00158
35.41022,33.23338
35.45022,33.14172
35.49022,29.71121
35.53022,43.16196
35.57022,46.80075
35.61022,47.1227
35.65022,70.12314
35.69022,86.40111
35.73022,95.10257
35.77022,83.30763
35.81022,81.73131
35.85022,67.08591
35.89022,46.0222
35.93022,64.83878
35.97022,70.17883
36.01022,93.25233
36.05022,143.976
36.09022,184.008
36.13022,217.833
36.17022,163.378
36.21022,104.26
36.25022,69.85729
36.29022,44.25465
36.33022,41.81822
36.37022,34.58139
36.41022,32.68557
36.45022,37.61645
36.49022,28.0623
36.53022,31.48436
36.57022,29.45785
36.61022,27.38667
36.65022,24.38147
36.69022,32.03352
36.73022,28.47368
36.77022,26.66333
36.81022,25.52622
36.85022,27.01591
36.89022,25.36492
36.93022,22.41174
36.97022,27.71812
37.01022,29.39805
37.05022,30.57709
37.09022,23.72339
37.13022,31.6911
37.17022,29.44352
37.21022,28.39344
37.25022,29.2692
37.29022,33.62665
37.33022,27.61243
37.37022,29.99031
37.41022,34.66924
37.45022,26.76037
37.49022,33.85518
37.53022,35.18208
37.57022,51.21238
37.61022,60.26671
37.65022,77.03309
37.69022,98.73826
37.73022,116.943
37.77022,118.037
37.81022,106.305
37.85022,143.772
37.89022,197.652
37.93022,262.331
37.97022,295.892
38.01022,261.0633
38.05022,161.045
38.09022,116.435
38.13022,68.94926
38.17022,60.8014
38.21022,52.74523
38.25022,42.68818
38.29022,31.0097
38.33022,33.42475
38.37022,27.36914
38.41022,37.26382
38.45022,32.19618
38.49022,31.80903
38.53022,33.67027
38.57022,33.3041
38.61022,31.1947
38.65022,26.37267
38.69022,34.23415
38.73022,31.54494
38.77022,26.51299
38.81022,20.64822
38.85022,27.65662
38.89022,25.24198
38.93022,23.77874
38.97022,24.10539
39.01022,29.22422
39.05022,25.09092
39.09022,27.53415
39.13022,25.39323
39.17022,28.53331
39.21022,27.9625
39.25022,26.75545
39.29022,31.7718
39.33022,21.70064
39.37022,24.16406
39.41022,34.46644
39.45022,22.46167
39.49022,26.20303
39.53022,27.48915
39.57022,30.34617
39.61022,28.20637
39.65022,31.33959
39.69022,28.67651
39.73022,25.38814
39.77022,30.99094
39.81022,23.64018
39.85022,17.11123
39.89022,22.0038
39.93022,22.06048
39.97022,33.52176
40.01022,25.56336
40.05022,28.72835
40.09022,26.34214
40.13022,24.6993
40.17022,36.27151
40.21022,45.29571
40.25022,38.25808
40.29022,49.7218
40.33022,65.46624
40.37022,74.99422
40.41022,76.10316
40.45022,75.45569
40.49022,66.18555
40.53022,44.08311
40.57022,49.00039
40.61022,39.47639
40.65022,32.73759
40.69022,26.98284
40.73022,28.48665
40.77022,26.00074
40.81022,22.95046
40.85022,27.62494
40.89022,27.98683
40.93022,27.2703
40.97022,20.77837
41.01022,27.21821
41.05022,33.95926
41.09022,23.9662
41.13022,23.20206
41.17022,19.75338
41.21022,28.18477
41.25022,22.83673
41.29022,27.35381
41.33022,24.06538
41.37022,28.4999
41.41022,20.11917
41.45022,27.58088
41.49022,22.39126
41.53022,27.11376
41.57022,29.83341
41.61022,23.23819
41.65022,25.16607
41.69022,20.73742
41.73022,25.64589
41.77022,23.61909
41.81022,31.13223
41.85022,22.11875
41.89022,24.97818
41.93022,31.43347
41.97022,28.06332
42.01022,25.11129
42.05022,27.33736
42.09022,25.98507
42.13022,22.26816
42.17022,30.31191
42.21022,26.98669
42.25022,18.71869
42.29022,24.9569
42.33022,28.93449
42.37022,22.97466
42.41022,19.21161
42.45022,29.77749
42.49022,24.54587
42.53022,23.28063
42.57022,27.33793
42.61022,23.13381
42.65022,24.68507
42.69022,32.33638
42.73022,20.0867
42.77022,24.49902
42.81022,25.37058
42.85022,29.60838
42.89022,27.92697
42.93022,20.88444
42.97022,28.21199
43.01022,31.84474
43.05022,29.24561
43.09022,31.63793
43.13022,24.39775
43.17022,27.22085
43.21022,31.58393
43.25022,32.9346
43.29022,27.4666
43.33022,19.70988
43.37022,27.62992
43.41022,21.88339
43.45022,31.63591
43.49022,35.59764
43.53022,34.62662
43.57022,42.38749
43.61022,49.57309
43.65022,72.5836
43.69022,106.04
43.73022,187.274
43.77022,272.6542
43.81022,327.137
43.85022,311.54
43.89022,235.882
43.93022,170.263
43.97022,122.952
44.01022,107.349
44.05022,97.96704
44.09022,79.44665
44.13022,63.86381
44.17022,55.67058
44.21022,45.87002
44.25022,35.24079
44.29022,43.79991
44.33022,38.57843
44.37022,27.42656
44.41022,33.95517
44.45022,23.87892
44.49022,31.27704
44.53022,26.13265
44.57022,29.71343
44.61022,33.07178
44.65022,40.76136
44.69022,45.83075
44.73022,57.40438
44.77022,74.11657
44.81022,77.20254
44.85022,63.23748
44.89022,56.94328
44.93022,35.46595
44.97022,34.54348
45.01022,29.84375
45.05022,30.81851
45.09022,29.34001
45.13022,19.40359
45.17022,28.04379
45.21022,28.09544
45.25022,19.98664
45.29022,29.30146
45.33022,25.20873
45.37022,28.76472
45.41022,24.78986
45.45022,25.97701
45.49022,22.37516
45.53022,27.68661
45.57022,27.12647
45.61022,28.43819
45.65022,18.56741
45.69022,31.92879
45.73022,24.62108
45.77022,22.62816
45.81022,26.85156
45.85022,25.97515
45.89022,18.59504
45.93022,24.18653
45.97022,19.0872
46.01022,25.47043
46.05022,20.17113
46.09022,28.84918
46.13022,26.11523
46.17022,28.84163
46.21022,26.75366
46.25022,25.44316
46.29022,18.25991
46.33022,25.34991
46.37022,23.52868
46.41022,13.64238
46.45022,17.62147
46.49022,20.63225
46.53022,22.80079
46.57022,15.36534
46.61022,22.05001
46.65022,20.07187
46.69022,21.8241
46.73022,25.24833
46.77022,23.63728
46.81022,24.49636
46.85022,23.93474
46.89022,20.67132
46.93022,24.71046
46.97022,21.60814
47.01022,23.7846
47.05022,23.03663
47.09022,22.86142
47.13022,26.69961
47.17022,22.39685
47.21022,22.66996
47.25022,24.81713
47.29022,26.87006
47.33022,24.42219
47.37022,25.00305
47.41022,20.16601
47.45022,24.81163
47.49022,29.29802
47.53022,27.59753
47.57022,35.30989
47.61022,45.66586
47.65022,42.21624
47.69022,47.9163
47.73022,61.88055
47.77022,57.28498
47.81022,67.89156
47.85022,61.25121
47.89022,53.86228
47.93022,68.69906
47.97022,95.82836
48.01022,100.654
48.05022,116.898
48.09022,122.73
48.13022,79.09313
48.17022,72.00217
48.21022,41.1808
48.25022,37.25841
48.29022,33.17695
48.33022,29.92969
48.37022,18.61172
48.41022,22.86657
48.45022,21.79707
48.49022,23.46025
48.53022,27.588
48.57022,22.72169
48.61022,23.47187
48.65022,17.87089
48.69022,20.67873
48.73022,22.80681
48.77022,21.67731
48.81022,22.82452
48.85022,24.47758
48.89022,18.83051
48.93022,21.8894
48.97022,20.05762
49.01022,21.27405
49.05022,20.24156
49.09022,15.7714
49.13022,17.45278
49.17022,20.08788
49.21022,18.81373
49.25022,20.38802
49.29022,18.32065
49.33022,20.84346
49.37022,20.7972
49.41022,25.21175
49.45022,20.44647
49.49022,22.1334
49.53022,17.82339
49.57022,19.64988
49.61022,26.22203
49.65022,23.46377
49.69022,26.25618
49.73022,26.78759
49.77022,28.89607
49.81022,32.56384
49.85022,39.16118
49.89022,39.50618
49.93022,39.78991
49.97022,47.31985
50.01022,64.00641
50.05022,68.40756
50.09022,78.99582
50.13022,113.785
50.17022,142.719
50.21022,143.895
50.25022,141.0687
50.29022,119.119
50.33022,92.58769
50.37022,71.7601
50.41022,47.69487
50.45022,46.16639
50.49022,41.75323
50.53022,34.52976
50.57022,26.11533
50.61022,25.94461
50.65022,31.15858
50.69022,27.02447
50.73022,22.97841
50.77022,21.14337
50.81022,29.44744
50.85022,27.6129
50.89022,27.93344
50.93022,31.75011
50.97022,39.79578
51.01022,46.40333
51.05022,44.27273
51.09022,49.94969
51.13022,39.79764
51.17022,33.60182
51.21022,23.61556
51.25022,26.57422
51.29022,25.69002
51.33022,19.22055
51.37022,23.02858
51.41022,17.02207
51.45022,20.54083
51.49022,21.10947
51.53022,21.13674
51.57022,19.56682
51.61022,22.68454
51.65022,22.82154
51.69022,17.23425
51.73022,22.21271
51.77022,21.07691
51.81022,24.58894
51.85022,14.46862
51.89022,17.09741
51.93022,16.0205
51.97022,18.70327
52.01022,17.9633
52.05022,17.57137
52.09022,18.14367
52.13022,20.1751
52.17022,20.17171
52.21022,19.69155
52.25022,17.95166
52.29022,21.92951
52.33022,24.09208
52.37022,19.50613
52.41022,19.34187
52.45022,17.92728
52.49022,20.96555
52.53022,27.79362
52.57022,30.15101
52.61022,26.40505
52.65022,30.02666
52.69022,41.32058
52.73022,55.12291
52.77022,66.09639
52.81022,92.72185
52.85022,118.215
52.89022,144.7467
52.93022,156.276
52.97022,149.292
53.01022,147.359
53.05022,117.991
53.09022,115.933
53.13022,112
53.17022,126.816
53.21022,130.695
53.25022,109.09
53.29022,98.58881
53.33022,68.15428
53.37022,42.18298
53.41022,42.38246
53.45022,30.99683
53.49022,27.97821
53.53022,19.88693
53.57022,23.37111
53.61022,22.50604
53.65022,17.74225
53.69022,22.02536
53.73022,20.53705
53.77022,17.16362
53.81022,18.95232
53.85022,20.79896
53.89022,17.46281
53.93022,13.34194
53.97022,23.13389
54.01022,16.52545
54.05022,21.00894
54.09022,16.64498
54.13022,21.19052
54.17022,25.45724
54.21022,23.70251
54.25022,20.01269
54.29022,19.15057
54.33022,19.60036
54.37022,29.15623
54.41022,30.15333
54.45022,34.32689
54.49022,47.42007
54.53022,58.31886
54.57022,57.29331
54.61022,54.48469
54.65022,46.48592
54.69022,34.96955
54.73022,39.13235
54.77022,32.26205
54.81022,31.71554
54.85022,26.83312
54.89022,24.89156
54.93022,31.46211
54.97022,28.64242
55.01022,31.07819
55.05022,37.53462
55.09022,39.51633
55.13022,48.75209
55.17022,58.01993
55.21022,63.18043
55.25022,78.76226
55.29022,73.61946
55.33022,47.85492
55.37022,40.99918
55.41022,36.70708
55.45022,29.86861
55.49022,26.21936
55.53022,23.69272
55.57022,21.36276
55.61022,19.62318
55.65022,15.37888
55.69022,18.86664
55.73022,18.16913
55.77022,21.52633
55.81022,18.32964
55.85022,15.41621
55.89022,24.04681
55.93022,19.81774
55.97022,26.03603
56.01022,25.99155
56.05022,20.97746
56.09022,15.90469
56.13022,20.41423
56.17022,15.92944
56.21022,15.27953
56.25022,14.61382
56.29022,13.30936
56.33022,18.27107
56.37022,12.6939
56.41022,16.27829
56.45022,10.97828
56.49022,16.40608
56.53022,17.30646
56.57022,13.80671
56.61022,16.55213
56.65022,17.87473
56.69022,18.33134
56.73022,15.33149
56.77022,17.3404
56.81022,14.23717
56.85022,11.18774
56.89022,15.80111
56.93022,16.6262
56.97022,21.02889
57.01022,16.45903
57.05022,13.11037
57.09022,19.35661
57.13022,13.476
57.17022,13.73772
57.21022,10.25675
57.25022,19.42773
57.29022,21.49792
57.33022,14.56666
57.37022,17.6771
57.41022,14.71853
57.45022,15.49754
57.49022,12.36987
57.53022,17.19549
57.57022,18.66596
57.61022,15.18152
57.65022,20.50792
57.69022,22.50233
57.73022,28.06531
57.77022,28.50792
57.81022,28.09389
57.85022,41.16946
57.89022,50.75427
57.93022,64.24153
57.97022,78.73296
58.01022,94.93193
58.05022,98.85898
58.09022,105.9371
58.13022,90.24151
58.17022,61.49517
58.21022,57.45715
58.25022,49.83699
58.29022,55.255
58.33022,43.83478
58.37022,49.3168
58.41022,48.5893
58.45022,28.22276
58.49022,35.76926
58.53022,20.51338
58.57022,29.53076
58.61022,21.56513
58.65022,25.6759
58.69022,24.76241
58.73022,24.48255
58.77022,20.23333
58.81022,26.01273
58.85022,23.01396
58.89022,25.27973
58.93022,20.58635
58.97022,22.84181
59.01022,32.61628
59.05022,45.63618
59.09022,47.35152
59.13022,52.26204
59.17022,57.78915
59.19022,58.05279