File: data/xrd_icdd_PDF/00-072-0145 (PD3).csv
10,1208
10.12,1171
10.24,1192
10.36,1124
10.48,1234
10.6,1170
10.72,1187
10.84,1101
10.96,1185
11.08,1204
11.2,1225
11.32,1119
11.44,1142
11.56,1189
11.68,1112
11.8,1137
11.92,1175
12.04,1164
12.16,1105
12.28,1163
12.4,1181
12.52,1139
12.64,1169
12.76,1240
12.88,1335
13,1452
13.12,1318
13.24,1139
13.36,1148
13.48,1114
13.6,1071
13.72,1073
13.84,1106
13.96,1104
14.08,1150
14.2,1083
14.32,1111
14.44,1089
14.56,1133
14.68,1105
14.8,1058
14.92,1071
15.04,1091
15.16,1078
15.28,1012
15.4,1103
15.52,1101
15.64,1068
15.76,1026
15.88,1046
16,1112
16.12,1088
16.24,1041
16.36,1034
16.48,1021
16.6,1016
16.72,990
16.84,960
16.96,984
17.08,1016
17.2,1054
17.32,1037
17.44,1030
17.56,1070
17.68,982
17.8,1029
17.92,956
18.04,950
18.16,977
18.28,944
18.4,1001
18.52,940
18.64,917
18.76,896
18.88,901
19,925
19.12,895
19.24,889
19.36,902
19.48,885
19.6,931
19.72,863
19.84,871
19.96,862
20.08,870
20.2,921
20.32,870
20.44,815
20.56,790
20.68,810
20.8,867
20.92,862
21.04,845
21.16,832
21.28,829
21.4,798
21.52,858
21.64,835
21.76,855
21.88,800
22,798
22.12,770
22.24,865
22.36,927
22.48,1009
22.6,985
22.72,839
22.84,751
22.96,757
23.08,772
23.2,758
23.32,727
23.44,770
23.56,732
23.68,735
23.8,790
23.92,744
24.04,799
24.16,727
24.28,761
24.4,731
24.52,723
24.64,713
24.76,738
24.88,667
25,737
25.12,708
25.24,677
25.36,717
25.48,710
25.6,763
25.72,718
25.84,730
25.96,796
26.08,1246
26.2,1555
26.32,1203
26.44,728
26.56,688
26.68,641
26.8,686
26.92,731
27.04,689
27.16,646
27.28,669
27.4,688
27.52,708
27.64,649
27.76,633
27.88,654
28,748
28.12,683
28.24,699
28.36,732
28.48,834
28.6,858
28.72,996
28.84,1297
28.96,1871
29.08,3638
29.2,6591
29.32,6568
29.44,3475
29.56,1754
29.68,1181
29.8,913
29.92,783
30.04,706
30.16,744
30.28,761
30.4,951
30.52,1172
30.64,1314
30.76,1070
30.88,795
31,771
31.12,691
31.24,596
31.36,595
31.48,551
31.6,533
31.72,536
31.84,543
31.96,547
32.08,499
32.2,519
32.32,511
32.44,567
32.56,588
32.68,611
32.8,650
32.92,831
33.04,1057
33.16,1569
33.28,2602
33.4,3345
33.52,2848
33.64,1664
33.76,1079
33.88,779
34,687
34.12,586
34.24,556
34.36,481
34.48,505
34.6,445
34.72,492
34.84,484
34.96,397
35.08,433
35.2,420
35.32,422
35.44,396
35.56,374
35.68,433
35.8,409
35.92,386
36.04,387
36.16,418
36.28,363
36.4,361
36.52,356
36.64,383
36.76,363
36.88,394
37,375
37.12,357
37.24,352
37.36,322
37.48,310
37.6,339
37.72,322
37.84,338
37.96,338
38.08,358
38.2,360
38.32,332
38.44,366
38.56,363
38.68,341
38.8,396
38.92,367
39.04,428
39.16,449
39.28,503
39.4,676
39.52,1155
39.64,1757
39.76,1982
39.88,1145
40,695
40.12,549
40.24,522
40.36,542
40.48,628
40.6,829
40.72,1030
40.84,990
40.96,721
41.08,521
41.2,431
41.32,410
41.44,378
41.56,329
41.68,379
41.8,351
41.92,357
42.04,323
42.16,383
42.28,339
42.4,333
42.52,330
42.64,337
42.76,336
42.88,328
43,380
43.12,414
43.24,411
43.36,513
43.48,553
43.6,841
43.72,1596
43.84,2435
43.96,2369
44.08,1202
44.2,700
44.32,496
44.44,449
44.56,371
44.68,338
44.8,352
44.92,335
45.04,347
45.16,334
45.28,321
45.4,301
45.52,309
45.64,318
45.76,294
45.88,285
46,302
46.12,286
46.24,325
46.36,281
46.48,288
46.6,301
46.72,295
46.84,307
46.96,312
47.08,311
47.2,283
47.32,279
47.44,244
47.56,273
47.68,330
47.8,314
47.92,269
48.04,306
48.16,298
48.28,293
48.4,301
48.52,270
48.64,301
48.76,254
48.88,300
49,304
49.12,286
49.24,282
49.36,297
49.48,325
49.6,316
49.72,346
49.84,373
49.96,356
50.08,395
50.2,355
50.32,411
50.44,469
50.56,529
50.68,638
50.8,1008
50.92,1490
51.04,1724
51.16,1565
51.28,1088
51.4,713
51.52,610
51.64,533
51.76,596
51.88,547
52,502
52.12,437
52.24,388
52.36,344
52.48,360
52.6,368
52.72,388
52.84,390
52.96,407
53.08,519
53.2,644
53.32,800
53.44,1135
53.56,1472
53.68,1666
53.8,1617
53.92,1713
54.04,1312
54.16,762
54.28,540
54.4,415
54.52,391
54.64,336
54.76,300
54.88,343
55,291
55.12,273
55.24,266
55.36,263
55.48,249
55.6,259
55.72,267
55.84,275
55.96,281
56.08,275
56.2,260
56.32,258
56.44,274
56.56,238
56.68,288
56.8,270
56.92,260
57.04,242
57.16,241
57.28,260
57.4,239
57.52,246
57.64,284
57.76,262
57.88,252
58,260
58.12,221
58.24,262
58.36,276
58.48,257
58.6,251
58.72,247
58.84,247
58.96,259
59.08,259
59.2,252
59.32,237
59.44,224
59.56,250
59.68,270
59.8,293
59.92,283
60.04,314
60.16,353
60.28,402
60.4,475
60.52,570
60.64,703
60.76,677
60.88,595
61,464
61.12,403
61.24,325
61.36,273
61.48,328
61.6,294
61.72,259
61.84,291
61.96,253
62.08,277
62.2,276
62.32,263
62.44,274
62.56,239
62.68,241
62.8,276
62.92,296
63.04,313
63.16,371
63.28,442
63.4,494
63.52,471
63.64,535
63.76,615
63.88,626
64,498
64.12,436
64.24,365
64.36,339
64.48,287
64.6,287
64.72,254
64.84,230
64.96,247
65.08,265
65.2,258
65.32,254
65.44,253
65.56,267
65.68,285
65.8,358
65.92,313
66.04,282
66.16,244
66.28,242
66.4,253
66.52,198
66.64,235
66.76,236
66.88,230
67,253
67.12,214
67.24,229
67.36,253
67.48,241
67.6,226
67.72,229
67.84,224
67.96,238
68.08,219
68.2,227
68.32,238
68.44,232
68.56,233
68.68,228
68.8,245
68.92,207
69.04,259
69.16,273
69.28,251
69.4,234
69.52,230
69.64,243
69.76,255
69.88,237
70,252
70.12,270
70.24,295
70.36,282
70.48,264
70.6,275
70.72,244
70.84,225
70.96,279
71.08,338
71.2,328
71.32,374
71.44,423
71.56,488
71.68,659
71.8,755
71.92,946
72.04,883
72.16,731
72.28,602
72.4,532
72.52,410
72.64,398
72.76,311
72.88,334
73,330
73.12,277
73.24,284
73.36,308
73.48,302
73.6,322
73.72,430
73.84,444
73.96,501
74.08,540
74.2,454
74.32,372
74.44,287
74.56,277
74.68,261
74.8,258
74.92,233
75.04,222
75.16,237
75.28,244
75.4,227
75.52,255
75.64,232
75.76,225
75.88,202
76,225
76.12,209
76.24,226
76.36,210
76.48,215
76.6,203
76.72,237
76.84,220
76.96,246
77.08,255
77.2,250
77.32,266
77.44,305
77.56,335
77.68,328
77.8,332
77.92,360
78.04,317
78.16,296
78.28,300
78.4,310
78.52,345
78.64,323
78.76,305
78.88,268
79,249
79.12,227
79.24,257
79.36,257
79.48,200
79.6,224
79.72,235
79.84,225
79.96,177
80.08,209
80.2,259
80.32,226
80.44,227
80.56,235
80.68,207
80.8,257
80.92,280
81.04,365
81.16,390
81.28,471
81.4,466
81.52,398
81.64,322
81.76,268
81.88,260
82,269
82.12,244
82.24,231
82.36,270
82.48,251
82.6,264
82.72,235
82.84,236
82.96,225
83.08,218
83.2,236
83.32,223
83.44,239
83.56,206
83.68,239
83.8,222
83.92,237
84.04,219
84.16,187
84.28,240
84.4,227
84.52,223
84.64,236
84.76,229
84.88,272
85,235
85.12,258
85.24,294
85.36,323
85.48,342
85.6,379
85.72,450
85.84,492
85.96,526
86.08,513
86.2,449
86.32,400
86.44,341
86.56,296
86.68,287
86.8,276
86.92,292
87.04,255
87.16,303
87.28,256
87.4,306
87.52,320
87.64,339
87.76,389
87.88,440
88,478
88.12,511
88.24,547
88.36,472
88.48,469
88.6,406
88.72,360
88.84,322
88.96,286
89.08,265
89.2,262
89.32,287
89.44,235
89.56,250
89.68,219
89.8,209
89.92,217
90.04,203
90.16,220
90.28,250
90.4,208
90.52,189
90.64,222
90.76,211
90.88,213
91,184
91.12,220
91.24,178
91.36,184
91.48,215
91.6,207
91.72,197
91.84,201
91.96,212
92.08,210
92.2,210
92.32,192
92.44,204
92.56,178
92.68,203
92.8,191
92.92,227
93.04,196
93.16,212
93.28,210
93.4,206
93.52,224
93.64,248
93.76,251
93.88,270
94,286
94.12,265
94.24,267
94.36,286
94.48,229
94.6,247
94.72,255
94.84,207
94.96,214
95.08,194
95.2,194
95.32,214
95.44,213
95.56,212
95.68,220
95.8,205
95.92,229
96.04,251
96.16,258
96.28,279
96.4,328
96.52,331
96.64,354
96.76,375
96.88,380
97,394
97.12,375
97.24,410
97.36,398
97.48,371
97.6,370
97.72,354
97.84,274
97.96,274
98.08,257
98.2,270
98.32,206
98.44,251
98.56,251
98.68,228
98.8,212
98.92,236
99.04,243
99.16,224
99.28,232
99.4,245
99.52,189
99.64,191
99.76,220
99.88,223
100,228
100.12,205
100.24,194
100.36,216
100.48,196
100.6,212
100.72,216
100.84,198
100.96,189
101.08,227
101.2,188
101.32,209
101.44,237
101.56,224
101.68,237
101.8,224
101.92,228
102.04,242
102.16,222
102.28,229
102.4,230
102.52,206
102.64,204
102.76,244
102.88,224
103,231
103.12,219
103.24,237
103.36,252
103.48,253
103.6,249
103.72,241
103.84,266
103.96,300
104.08,296
104.2,342
104.32,311
104.44,288
104.56,305
104.68,282
104.8,243
104.92,265
105.04,250
105.16,233
105.28,227
105.4,225
105.52,225
105.64,230
105.76,230
105.88,234
106,228
106.12,215
106.24,242
106.36,196
106.48,232
106.6,230
106.72,209
106.84,227
106.96,224
107.08,200
107.2,193
107.32,211
107.44,168
107.56,193
107.68,206
107.8,180
107.92,200
108.04,208
108.16,207
108.28,197
108.4,189
108.52,214
108.64,194
108.76,217
108.88,212
109,224
109.12,208
109.24,236
109.36,224
109.48,238
109.6,218
109.72,241
109.84,239
109.96,259
110.08,255
110.2,268
110.32,309
110.44,314
110.56,274
110.68,298
110.8,274
110.92,234
111.04,242
111.16,256
111.28,230
111.4,242
111.52,266
111.64,200
111.76,244
111.88,237
112,247
112.12,234
112.24,248
112.36,265
112.48,253
112.6,271
112.72,243
112.84,301
112.96,297
113.08,348
113.2,375
113.32,400
113.44,412
113.56,437
113.68,459
113.8,463
113.92,422
114.04,427
114.16,387
114.28,350
114.4,306
114.52,288
114.64,280
114.76,278
114.88,261
115,254
115.12,265
115.24,245
115.36,269
115.48,231
115.6,243
115.72,253
115.84,236
115.96,262
116.08,236
116.2,258
116.32,228
116.44,245
116.56,227
116.68,247
116.8,213
116.92,212
117.04,205
117.16,195
117.28,232
117.4,252
117.52,206
117.64,229
117.76,220
117.88,225
118,234
118.12,237
118.24,263
118.36,242
118.48,264
118.6,236
118.72,240
118.84,257
118.96,265
119.08,267
119.2,276
119.32,276
119.44,295
119.56,276
119.68,269
119.8,256
119.92,266
120.04,279
120.16,247
120.28,233
120.4,256
120.52,243
120.64,237
120.76,261
120.88,247
121,244
121.12,257
121.24,273
121.36,265
121.48,298
121.6,277
121.72,304
121.84,309
121.96,315
122.08,300
122.2,271
122.32,272
122.44,245
122.56,279
122.68,258
122.8,265
122.92,264
123.04,247
123.16,237
123.28,234
123.4,250
123.52,231
123.64,228
123.76,233
123.88,224
124,224
124.12,230
124.24,231
124.36,247
124.48,200
124.6,227
124.72,238
124.84,204
124.96,217
125.08,228
125.2,217
125.32,212
125.44,218
125.56,207
125.68,224
125.8,204
125.92,239
126.04,208
126.16,207
126.28,242
126.4,234
126.52,212
126.64,207
126.76,220
126.88,266
127,256
127.12,218
127.24,232
127.36,217
127.48,221
127.6,239
127.72,221
127.84,241
127.96,236
128.08,234
128.2,238
128.32,252
128.44,217
128.56,243
128.68,245
128.8,254
128.92,262
129.04,255
129.16,273
129.28,231
129.4,251
129.52,234
129.64,250
129.76,241
129.88,231
130,242
130.12,220
130.24,230
130.36,286
130.48,284
130.6,280
130.72,256
130.84,244
130.96,269
131.08,263
131.2,250
131.32,242
131.44,298
131.56,278
131.68,249
131.8,259
131.92,262
132.04,243
132.16,244
132.28,310
132.4,281
132.52,266
132.64,300
132.76,288
132.88,311
133,341
133.12,263
133.24,294
133.36,352
133.48,339
133.6,326
133.72,326
133.84,324
133.96,290
134.08,323
134.2,297
134.32,279
134.44,255
134.56,258
134.68,271
134.8,301
134.92,271
135.04,276
135.16,244
135.28,279
135.4,303
135.52,275
135.64,270
135.76,254
135.88,264
136,267
136.12,272
136.24,276
136.36,272
136.48,249
136.6,252
136.72,243
136.84,276
136.96,253
137.08,255
137.2,263
137.32,271
137.44,268
137.56,252
137.68,281
137.8,284
137.92,267
138.04,237
138.16,290
138.28,280
138.4,253
138.52,265
138.64,263
138.76,268
138.88,257
139,279
139.12,261
139.24,258
139.36,292
139.48,249
139.6,290
139.72,255
139.84,263
139.96,273
140,268