File: data/xrd_icdd_PDF/00-059-0211 (PD3).csv
6,4174
6.08,4122
6.16,4088
6.24,4093
6.32,4040
6.4,4057
6.48,4062
6.56,4016
6.64,4033
6.72,3965
6.8,3930
6.88,3942
6.96,3940
7.04,3915
7.12,3898
7.2,3898
7.28,3853
7.36,3832
7.44,3878
7.52,3859
7.6,3806
7.68,3814
7.76,3800
7.84,3814
7.92,3778
8,3748
8.08,3763
8.16,3702
8.24,3689
8.32,3693
8.4,3740
8.48,3703
8.56,3708
8.64,3650
8.72,3641
8.8,3643
8.88,3645
8.96,3644
9.04,3626
9.12,3662
9.2,3628
9.28,3636
9.36,3647
9.44,3628
9.52,3588
9.6,3671
9.68,3634
9.76,3794
9.84,3855
9.92,3909
10,3759
10.08,3621
10.16,3549
10.24,3558
10.32,3515
10.4,3489
10.48,3492
10.56,3466
10.64,3535
10.72,3513
10.8,3491
10.88,3547
10.96,3550
11.04,3552
11.12,3522
11.2,3535
11.28,3470
11.36,3473
11.44,3526
11.52,3502
11.6,3458
11.68,3496
11.76,3485
11.84,3492
11.92,3469
12,3435
12.08,3496
12.16,3548
12.24,3670
12.32,3760
12.4,3550
12.48,3454
12.56,3491
12.64,3445
12.72,3475
12.8,3481
12.88,3476
12.96,3495
13.04,3426
13.12,3467
13.2,3487
13.28,3429
13.36,3480
13.44,3439
13.52,3474
13.6,3442
13.68,3472
13.76,3481
13.84,3439
13.92,3442
14,3468
14.08,3421
14.16,3426
14.24,3466
14.32,3474
14.4,3475
14.48,3414
14.56,3471
14.64,3415
14.72,3403
14.8,3449
14.88,3427
14.96,3488
15.04,3457
15.12,3438
15.2,3417
15.28,3403
15.36,3423
15.44,3447
15.52,3394
15.6,3389
15.68,3429
15.76,3382
15.84,3443
15.92,3415
16,3432
16.08,3427
16.16,3439
16.24,3420
16.32,3434
16.4,3420
16.48,3432
16.56,3439
16.64,3378
16.72,3442
16.8,3414
16.88,3444
16.96,3370
17.04,3430
17.12,3380
17.2,3435
17.28,3405
17.36,3369
17.44,3384
17.52,3359
17.6,3416
17.68,3406
17.76,3403
17.84,3411
17.92,3417
18,3388
18.08,3424
18.16,3415
18.24,3391
18.32,3435
18.4,3447
18.48,3629
18.56,3956
18.64,4376
18.72,4426
18.8,3782
18.88,3577
18.96,3400
19.04,3462
19.12,3519
19.2,3464
19.28,3406
19.36,3386
19.44,3377
19.52,3388
19.6,3350
19.68,3356
19.76,3390
19.84,3381
19.92,3452
20,3404
20.08,3368
20.16,3343
20.24,3326
20.32,3335
20.4,3366
20.48,3362
20.56,3356
20.64,3327
20.72,3386
20.8,3365
20.88,3344
20.96,3354
21.04,3333
21.12,3329
21.2,3332
21.28,3353
21.36,3360
21.44,3313
21.52,3364
21.6,3325
21.68,3303
21.76,3372
21.84,3330
21.92,3331
22,3360
22.08,3309
22.16,3325
22.24,3307
22.32,3377
22.4,3334
22.48,3316
22.56,3370
22.64,3393
22.72,3470
22.8,3515
22.88,3920
22.96,3797
23.04,3600
23.12,3573
23.2,3502
23.28,3473
23.36,3382
23.44,3429
23.52,3318
23.6,3306
23.68,3297
23.76,3347
23.84,3365
23.92,3355
24,3323
24.08,3340
24.16,3323
24.24,3299
24.32,3373
24.4,3340
24.48,3599
24.56,3685
24.64,4116
24.72,4006
24.8,3588
24.88,3409
24.96,3545
25.04,3446
25.12,3514
25.2,3324
25.28,3407
25.36,3326
25.44,3397
25.52,3287
25.6,3277
25.68,3331
25.76,3340
25.84,3328
25.92,3340
26,3286
26.08,3339
26.16,3269
26.24,3334
26.32,3288
26.4,3293
26.48,3279
26.56,3346
26.64,3335
26.72,3233
26.8,3233
26.88,3320
26.96,3541
27.04,3663
27.12,3786
27.2,3537
27.28,3721
27.36,4259
27.44,4836
27.52,4045
27.6,3508
27.68,3402
27.76,3354
27.84,3251
27.92,3364
28,3300
28.08,3348
28.16,3341
28.24,3267
28.32,3305
28.4,3304
28.48,3262
28.56,3310
28.64,3277
28.72,3303
28.8,3299
28.88,3313
28.96,3310
29.04,3286
29.12,3271
29.2,3410
29.28,3528
29.36,3455
29.44,3296
29.52,3306
29.6,3244
29.68,3307
29.76,3288
29.84,3376
29.92,3533
30,3807
30.08,3958
30.16,3822
30.24,3784
30.32,3522
30.4,3251
30.48,3242
30.56,3262
30.64,3112
30.72,3257
30.8,3318
30.88,3315
30.96,3330
31.04,3321
31.12,3372
31.2,3357
31.28,3419
31.36,3677
31.44,4144
31.52,3776
31.6,3466
31.68,3452
31.76,3562
31.84,3658
31.92,4061
32,4815
32.08,7481
32.16,12699
32.24,10223
32.32,5889
32.4,4295
32.48,3960
32.56,3743
32.64,3476
32.72,3510
32.8,3242
32.88,3365
32.96,3269
33.04,3260
33.12,3419
33.2,3424
33.28,3507
33.36,3644
33.44,3590
33.52,3712
33.6,3842
33.68,4318
33.76,4977
33.84,7055
33.92,7572
34,7487
34.08,9725
34.16,16963
34.24,17523
34.32,13710
34.4,11572
34.48,10739
34.56,7818
34.64,5252
34.72,4454
34.8,4451
34.88,4250
34.96,4338
35.04,4554
35.12,4910
35.2,5786
35.28,7957
35.36,13522
35.44,22243
35.52,24858
35.6,21739
35.68,13580
35.76,7184
35.84,5256
35.92,4520
36,4118
36.08,3806
36.16,3757
36.24,3703
36.32,3711
36.4,3776
36.48,3872
36.56,3931
36.64,4122
36.72,4383
36.8,4991
36.88,6210
36.96,9871
37.04,19752
37.12,17603
37.2,14874
37.28,12720
37.36,13292
37.44,13522
37.52,11171
37.6,8136
37.68,6307
37.76,7094
37.84,11842
37.92,11718
38,8361
38.08,4993
38.16,4188
38.24,3860
38.32,3743
38.4,3592
38.48,3459
38.56,3436
38.64,3414
38.72,3462
38.8,3414
38.88,3284
38.96,3278
39.04,3267
39.12,3338
39.2,3282
39.28,3405
39.36,3585
39.44,4051
39.52,4491
39.6,4170
39.68,3703
39.76,3612
39.84,3512
39.92,3352
40,3332
40.08,3261
40.16,3319
40.24,3383
40.32,3644
40.4,4553
40.48,4626
40.56,4151
40.64,3483
40.72,3320
40.8,3240
40.88,3227
40.96,3244
41.04,3240
41.12,3374
41.2,3543
41.28,3465
41.36,3273
41.44,3211
41.52,3271
41.6,3160
41.68,3264
41.76,3302
41.84,3345
41.92,3434
42,3932
42.08,4932
42.16,4749
42.24,4399
42.32,3838
42.4,3571
42.48,3676
42.56,3986
42.64,4876
42.72,5189
42.8,4567
42.88,3879
42.96,3740
43.04,4071
43.12,3906
43.2,3625
43.28,3344
43.36,3341
43.44,3251
43.52,3232
43.6,3296
43.68,3289
43.76,3311
43.84,3225
43.92,3342
44,3303
44.08,3298
44.16,3325
44.24,3242
44.32,3279
44.4,3303
44.48,3258
44.56,3233
44.64,3243
44.72,3254
44.8,3236
44.88,3306
44.96,3283
45.04,3246
45.12,3294
45.2,3291
45.28,3300
45.36,3314
45.44,3337
45.52,3281
45.6,3296
45.68,3349
45.76,3501
45.84,3780
45.92,4439
46,5716
46.08,5766
46.16,4745
46.24,4038
46.32,3632
46.4,3426
46.48,3414
46.56,3425
46.64,3473
46.72,3786
46.8,3996
46.88,3841
46.96,3745
47.04,3884
47.12,4777
47.2,5420
47.28,4574
47.36,4022
47.44,3547
47.52,3451
47.6,3394
47.68,3221
47.76,3251
47.84,3401
47.92,3395
48,3477
48.08,3578
48.16,3924
48.24,3634
48.32,3613
48.4,3457
48.48,3345
48.56,3498
48.64,3455
48.72,3453
48.8,3340
48.88,3284
48.96,3267
49.04,3334
49.12,3327
49.2,3297
49.28,3276
49.36,3322
49.44,3340
49.52,3543
49.6,3648
49.68,3770
49.76,3720
49.84,3629
49.92,3629
50,3660
50.08,3900
50.16,4056
50.24,4021
50.32,3992
50.4,4341
50.48,5479
50.56,7958
50.64,6512
50.72,6054
50.8,4357
50.88,3902
50.96,3751
51.04,3767
51.12,4124
51.2,4600
51.28,5107
51.36,6375
51.44,6115
51.52,6880
51.6,7154
51.68,5703
51.76,4888
51.84,4019
51.92,3781
52,3630
52.08,3566
52.16,3530
52.24,3605
52.32,3610
52.4,3534
52.48,3853
52.56,4260
52.64,4080
52.72,3992
52.8,3807
52.88,3857
52.96,4471
53.04,4901
53.12,4840
53.2,4283
53.28,4034
53.36,3648
53.44,3594
53.52,3555
53.6,3625
53.68,3762
53.76,3917
53.84,4757
53.92,4737
54,4659
54.08,4612
54.16,4699
54.24,4771
54.32,4307
54.4,3981
54.48,3542
54.56,3507
54.64,3435
54.72,3397
54.8,3440
54.88,3403
54.96,3281
55.04,3319
55.12,3348
55.2,3375
55.28,3317
55.36,3309
55.44,3343
55.52,3324
55.6,3374
55.68,3380
55.76,3409
55.84,3621
55.92,3834
56,3577
56.08,3618
56.16,3389
56.24,3221
56.32,3317
56.4,3291
56.48,3305
56.56,3574
56.64,3548
56.72,3509
56.8,3404
56.88,3361
56.96,3428
57.04,3473
57.12,3842
57.2,4648
57.28,4531
57.36,4301
57.44,4000
57.52,3692
57.6,3595
57.68,3843
57.76,4474
57.84,4747
57.92,4442
58,4565
58.08,4119
58.16,3996
58.24,3833
58.32,3600
58.4,3514
58.48,3444
58.56,3412
58.64,3394
58.72,3499
58.8,3728
58.88,3959
58.96,4650
59.04,6220
59.12,6673
59.2,5655
59.28,5323
59.36,4392
59.44,4434
59.52,4485
59.6,4110
59.68,3963
59.76,3554
59.84,3479
59.92,3481
60,3617
60.08,3800
60.16,4124
60.24,5591
60.32,6333
60.4,5195
60.48,4958
60.56,4202
60.64,4134
60.72,4062
60.8,3814
60.88,3686
60.96,3468
61.04,3368
61.12,3395
61.2,3341
61.28,3353
61.36,3394
61.44,3447
61.52,3430
61.6,3523
61.68,3547
61.76,3619
61.84,3957
61.92,4083
62,4096
62.08,4177
62.16,4809
62.24,4661
62.32,4488
62.4,4473
62.48,3980
62.56,3741
62.64,3576
62.72,3466
62.8,3459
62.88,3596
62.96,3711
63.04,3693
63.12,3496
63.2,3558
63.28,3728
63.36,3763
63.44,3669
63.52,3748
63.6,3776
63.68,4053
63.76,3818
63.84,3908
63.92,4079
64,4611
64.08,4925
64.16,4693
64.24,4633
64.32,4366
64.4,4433
64.48,4255
64.56,4350
64.64,4656
64.72,5585
64.8,7619
64.88,7066
64.96,6798
65.04,6857
65.12,5430
65.2,5197
65.28,4805
65.36,4517
65.44,4890
65.52,5474
65.6,5291
65.68,4681
65.76,4458
65.84,3749
65.92,3592
66,3448
66.08,3343
66.16,3434
66.24,3224
66.32,3307
66.4,3298
66.48,3283
66.56,3285
66.64,3464
66.72,3466
66.8,3768
66.88,4179
66.96,3911
67.04,3966
67.12,3971
67.2,3776
67.28,3903
67.36,3770
67.44,3614
67.52,3567
67.6,3605
67.68,3938
67.76,4619
67.84,4483
67.92,4213
68,4047
68.08,3853
68.16,3742
68.24,3931
68.32,4181
68.4,4111
68.48,4105
68.56,4225
68.64,4271
68.72,5043
68.8,5526
68.88,4821
68.96,4708
69.04,4263
69.12,3647
69.2,3553
69.28,3485
69.36,3390
69.44,3574
69.52,3700
69.6,3484
69.68,3520
69.76,3333
69.84,3218
69.92,3239
70,3233
70.08,3203
70.16,3103
70.24,3282
70.32,3256
70.4,3239
70.48,3272
70.56,3260
70.64,3287
70.72,3292
70.8,3292
70.88,3249
70.96,3314
71.04,3416
71.12,3554
71.2,3669
71.28,3761
71.36,3804
71.44,3942
71.52,3851
71.6,3671
71.68,3632
71.76,3698
71.84,3581
71.92,3550
72,3605
72.08,3555
72.16,3559
72.24,3606
72.32,3734
72.4,3763
72.48,4035
72.56,4427
72.64,4821
72.72,4521
72.8,4904
72.88,5213
72.96,5452
73.04,5906
73.12,5559
73.2,5181
73.28,4916
73.36,4787
73.44,5099
73.52,5604
73.6,5956
73.68,6386
73.76,6262
73.84,5085
73.92,4560
74,4576
74.08,4245
74.16,3896
74.24,3892
74.32,4159
74.4,4855
74.48,4840
74.56,4327
74.64,4268
74.72,4072
74.8,3879
74.88,4030
74.96,4194
75.04,4186
75.12,4375
75.2,4466
75.28,3998
75.36,3975
75.44,3874
75.52,3823
75.6,3771
75.68,3941
75.76,4061
75.84,3957
75.92,3765
76,3826
76.08,3574
76.16,3485
76.24,3403
76.32,3414
76.4,3329
76.48,3466
76.56,3522
76.64,3434
76.72,3451
76.8,3493
76.88,3620
76.96,3475
77.04,3713
77.12,3793
77.2,4096
77.28,4106
77.36,3842
77.44,3934
77.52,3842
77.6,3623
77.68,3660
77.76,3538
77.84,3557
77.92,3533
78,3439
78.08,3752
78.16,3904
78.24,3792
78.32,3801
78.4,3747
78.48,3996
78.56,4226
78.64,4224
78.72,3861
78.8,3947
78.88,3988
78.96,4009
79.04,3828
79.12,3719
79.2,3704
79.28,3591
79.36,3548
79.44,3490
79.52,3464
79.6,3478
79.68,3432
79.76,3431
79.84,3515
79.92,3431
80,3440
80.08,3415
80.16,3345
80.24,3295
80.32,3372
80.4,3312
80.48,3421
80.56,3369
80.64,3490
80.72,3543
80.8,3657
80.88,3819
80.96,3855
81.04,3767
81.12,3637
81.2,3780
81.28,3588
81.36,3613
81.44,3435
81.52,3427
81.6,3350
81.68,3361
81.76,3321
81.84,3284
81.92,3365
82,3268
82.08,3239
82.16,3257
82.24,3207
82.32,3230
82.4,3264
82.48,3220
82.56,3271
82.64,3249
82.72,3241
82.8,3140
82.88,3150
82.96,3128
83.04,3095
83.12,3124
83.2,3097
83.28,3170
83.36,3143
83.44,3278
83.52,3233
83.6,3208
83.68,3096
83.76,3045
83.84,3163
83.92,3130
84,3055
84.08,3138
84.16,3107
84.24,3198
84.32,3251
84.4,3287
84.48,3324
84.56,3287
84.64,3255
84.72,3330
84.8,3296
84.88,3385
84.96,3497
85.04,3589
85.12,3779
85.2,3622
85.28,3542
85.36,3497
85.44,3602
85.52,3552
85.6,3571
85.68,3669
85.76,3600
85.84,3662
85.92,3667
86,3597
86.08,3689
86.16,3671
86.24,3725
86.32,3727
86.4,3772
86.48,3686
86.56,3579
86.64,3642
86.72,3417
86.8,3400
86.88,3426
86.96,3345
87.04,3393
87.12,3413
87.2,3501
87.28,3593
87.36,3594
87.44,3581
87.52,3568
87.6,3528
87.68,3455
87.76,3419
87.84,3345
87.92,3404
88,3414
88.08,3524
88.16,3646
88.24,3513
88.32,3450
88.4,3443
88.48,3445
88.56,3336
88.64,3337
88.72,3411
88.8,3305
88.88,3302
88.96,3400
89.04,3397
89.12,3356
89.2,3395
89.28,3511
89.36,3456
89.44,3604
89.52,3648
89.6,3718
89.68,3837
89.76,3769
89.84,3707
89.92,3772
90,3499
90.08,3525
90.16,3493
90.24,3348
90.32,3356
90.4,3418
90.48,3574
90.56,3833
90.64,3781
90.72,3697
90.8,3751
90.88,3701
90.96,3664
91.04,3629
91.12,3660
91.2,3548
91.28,3438
91.36,3395
91.44,3403
91.52,3415
91.6,3380
91.68,3497
91.76,3399
91.84,3398
91.92,3358
92,3405
92.08,3397
92.16,3297
92.24,3318
92.32,3224
92.4,3283
92.48,3238
92.56,3287
92.64,3272
92.72,3312
92.8,3323
92.88,3310
92.96,3331
93.04,3271
93.12,3341
93.2,3340
93.28,3269
93.36,3247
93.44,3424
93.52,3392
93.6,3341
93.68,3323
93.76,3402
93.84,3340
93.92,3499
94,3503
94.08,3276
94.16,3348
94.24,3387
94.32,3428
94.4,3349
94.48,3403
94.56,3438
94.64,3518
94.72,3646
94.8,3814
94.88,3836
94.96,3815
95.04,3739
95.12,3796
95.2,3874
95.28,3755
95.36,3829
95.44,3875
95.52,4030
95.6,3990
95.68,3668
95.76,3683
95.84,3650
95.92,3726
96,3728
96.08,3837
96.16,3846
96.24,3801
96.32,3710
96.4,3678
96.48,3633
96.56,3584
96.64,3399
96.72,3443
96.8,3402
96.88,3466
96.96,3682
97.04,3839
97.12,3892
97.2,4253
97.28,4402
97.36,4050
97.44,3927
97.52,4018
97.6,3834
97.68,3701
97.76,3606
97.84,3650
97.92,3718
98,3712
98.08,3592
98.16,3514
98.24,3579
98.32,3541
98.4,3398
98.48,3332
98.56,3345
98.64,3342
98.72,3510
98.8,3463
98.88,3564
98.96,3530
99.04,3542
99.12,3478
99.2,3426
99.28,3394
99.36,3398
99.44,3362
99.52,3329
99.6,3360
99.68,3254
99.76,3230
99.84,3301
99.92,3293
100,3315
100.08,3338
100.16,3322
100.24,3443
100.32,3485
100.4,3402
100.48,3446
100.56,3455
100.64,3485
100.72,3337
100.8,3350
100.88,3436
100.96,3548
101.04,3578
101.12,3741
101.2,3522
101.28,3454
101.36,3576
101.44,3697
101.52,3681
101.6,3790
101.68,3852
101.76,3655
101.84,3763
101.92,3907
102,4009
102.08,4095
102.16,4323
102.24,4267
102.32,3962
102.4,3792
102.48,3936
102.56,4026
102.64,3896
102.72,3706
102.8,3647
102.88,3568
102.96,3559
103.04,3438
103.12,3385
103.2,3387
103.28,3437
103.36,3300
103.44,3283
103.52,3358
103.6,3353
103.68,3337
103.76,3402
103.84,3389
103.92,3256
104,3368
104.08,3387
104.16,3386
104.24,3160
104.32,3301
104.4,3321
104.48,3339
104.56,3340
104.64,3385
104.72,3317
104.8,3337
104.88,3337
104.96,3344
105.04,3402
105.12,3415
105.2,3316
105.28,3336
105.36,3300
105.44,3312
105.52,3184
105.6,3192
105.68,3214
105.76,3246
105.84,3221
105.92,3221
106,3246
106.08,3283
106.16,3464
106.24,3598
106.32,3662
106.4,3535
106.48,3543
106.56,3627
106.64,3622
106.72,3588
106.8,3445
106.88,3376
106.96,3457
107.04,3286
107.12,3300
107.2,3234
107.28,3287
107.36,3274
107.44,3267
107.52,3409
107.6,3385
107.68,3562
107.76,3536
107.84,3589
107.92,3655
108,3691
108.08,3725
108.16,3824
108.24,4014
108.32,4236
108.4,4268
108.48,4242
108.56,4380
108.64,4445
108.72,4208
108.8,4266
108.88,4231
108.96,4038
109.04,3900
109.12,3787
109.2,3696
109.28,3515
109.36,3415
109.44,3490
109.52,3377
109.6,3281
109.68,3294
109.76,3259
109.84,3353
109.92,3223
110,3224