File: data/xrd_icdd_PDF/00-065-0436 (PD3).csv
5,83
5.08,69
5.16,58
5.24,65
5.32,71
5.4,66
5.48,63
5.56,59
5.64,75
5.72,69
5.8,58
5.88,77
5.96,69
6.04,82
6.12,79
6.2,73
6.28,65
6.36,87
6.44,59
6.52,86
6.6,81
6.68,74
6.76,72
6.84,82
6.92,82
7,71
7.08,69
7.16,55
7.24,64
7.32,82
7.4,93
7.48,72
7.56,67
7.64,82
7.72,51
7.8,64
7.88,61
7.96,72
8.04,61
8.12,70
8.2,78
8.28,84
8.36,98
8.44,93
8.52,89
8.6,95
8.68,74
8.76,72
8.84,83
8.92,87
9,63
9.08,86
9.16,97
9.24,86
9.32,61
9.4,60
9.48,80
9.56,74
9.64,70
9.72,78
9.8,81
9.88,88
9.96,86
10.04,95
10.12,78
10.2,102
10.28,101
10.36,82
10.44,73
10.52,86
10.6,60
10.68,74
10.76,107
10.84,83
10.92,68
11,94
11.08,98
11.16,69
11.24,84
11.32,86
11.4,62
11.48,95
11.56,65
11.64,90
11.72,78
11.8,99
11.88,82
11.96,87
12.04,84
12.12,92
12.2,94
12.28,84
12.36,94
12.44,91
12.52,91
12.6,86
12.68,107
12.76,91
12.84,86
12.92,86
13,82
13.08,103
13.16,72
13.24,95
13.32,84
13.4,90
13.48,99
13.56,107
13.64,79
13.72,67
13.8,79
13.88,82
13.96,95
14.04,87
14.12,97
14.2,94
14.28,94
14.36,89
14.44,110
14.52,93
14.6,89
14.68,89
14.76,85
14.84,106
14.92,92
15,97
15.08,104
15.16,63
15.24,96
15.32,108
15.4,107
15.48,95
15.56,88
15.64,102
15.72,85
15.8,99
15.88,93
15.96,98
16.04,112
16.12,95
16.2,91
16.28,91
16.36,87
16.44,108
16.52,94
16.6,99
16.68,106
16.76,65
16.84,101
16.92,84
17,101
17.08,101
17.16,75
17.24,74
17.32,95
17.4,89
17.48,84
17.56,106
17.64,96
17.72,93
17.8,92
17.88,86
17.96,103
18.04,82
18.12,114
18.2,114
18.28,105
18.36,106
18.44,76
18.52,79
18.6,112
18.68,93
18.76,121
18.84,112
18.92,114
19,102
19.08,85
19.16,112
19.24,96
19.32,118
19.4,109
19.48,100
19.56,133
19.64,107
19.72,113
19.8,117
19.88,142
19.96,151
20.04,123
20.12,168
20.2,251
20.28,357
20.36,798
20.44,1146
20.52,510
20.6,317
20.68,237
20.76,179
20.84,177
20.92,143
21,145
21.08,130
21.16,140
21.24,154
21.32,182
21.4,279
21.48,318
21.56,238
21.64,158
21.72,161
21.8,163
21.88,160
21.96,186
22.04,231
22.12,307
22.2,490
22.28,778
22.36,1707
22.44,1505
22.52,472
22.6,402
22.68,283
22.76,220
22.84,195
22.92,167
23,147
23.08,137
23.16,144
23.24,126
23.32,127
23.4,118
23.48,121
23.56,103
23.64,107
23.72,106
23.8,124
23.88,108
23.96,113
24.04,101
24.12,108
24.2,101
24.28,121
24.36,101
24.44,91
24.52,104
24.6,77
24.68,91
24.76,124
24.84,99
24.92,108
25,92
25.08,92
25.16,110
25.24,108
25.32,116
25.4,93
25.48,104
25.56,103
25.64,112
25.72,109
25.8,115
25.88,116
25.96,97
26.04,104
26.12,110
26.2,69
26.28,102
26.36,113
26.44,112
26.52,100
26.6,85
26.68,113
26.76,120
26.84,86
26.92,81
27,89
27.08,112
27.16,117
27.24,96
27.32,94
27.4,108
27.48,99
27.56,102
27.64,111
27.72,98
27.8,107
27.88,112
27.96,109
28.04,116
28.12,103
28.2,115
28.28,107
28.36,114
28.44,109
28.52,130
28.6,112
28.68,103
28.76,117
28.84,93
28.92,109
29,144
29.08,121
29.16,133
29.24,121
29.32,125
29.4,147
29.48,151
29.56,166
29.64,151
29.72,173
29.8,187
29.88,217
29.96,243
30.04,292
30.12,322
30.2,390
30.28,627
30.36,1414
30.44,2966
30.52,5108
30.6,2330
30.68,1257
30.76,743
30.84,643
30.92,701
31,943
31.08,1780
31.16,3763
31.24,5762
31.32,2848
31.4,1155
31.48,624
31.56,483
31.64,315
31.72,282
31.8,237
31.88,216
31.96,196
32.04,175
32.12,164
32.2,169
32.28,149
32.36,149
32.44,138
32.52,139
32.6,120
32.68,123
32.76,121
32.84,138
32.92,121
33,126
33.08,116
33.16,123
33.24,117
33.32,136
33.4,117
33.48,107
33.56,120
33.64,94
33.72,108
33.8,141
33.88,117
33.96,127
34.04,113
34.12,115
34.2,135
34.28,136
34.36,146
34.44,128
34.52,147
34.6,157
34.68,183
34.76,207
34.84,261
34.92,366
35,661
35.08,1324
35.16,1968
35.24,1096
35.32,625
35.4,323
35.48,219
35.56,208
35.64,168
35.72,158
35.8,170
35.88,149
35.96,149
36.04,165
36.12,166
36.2,169
36.28,181
36.36,211
36.44,222
36.52,264
36.6,314
36.68,415
36.76,580
36.84,1048
36.92,2420
37,5218
37.08,5733
37.16,2219
37.24,1029
37.32,600
37.4,468
37.48,356
37.56,267
37.64,202
37.72,204
37.8,167
37.88,155
37.96,164
38.04,142
38.12,137
38.2,146
38.28,139
38.36,131
38.44,129
38.52,142
38.6,127
38.68,132
38.76,125
38.84,129
38.92,113
39,118
39.08,117
39.16,136
39.24,122
39.32,128
39.4,118
39.48,126
39.56,121
39.64,147
39.72,130
39.8,122
39.88,137
39.96,113
40.04,130
40.12,166
40.2,145
40.28,158
40.36,148
40.44,154
40.52,179
40.6,186
40.68,205
40.76,196
40.84,224
40.92,247
41,286
41.08,330
41.16,407
41.24,527
41.32,741
41.4,1407
41.48,2926
41.56,4786
41.64,3278
41.72,1945
41.8,1653
41.88,2105
41.96,3370
42.04,6975
42.12,7705
42.2,3749
42.28,1731
42.36,1009
42.44,715
42.52,556
42.6,466
42.68,421
42.76,399
42.84,376
42.92,370
43,400
43.08,419
43.16,486
43.24,583
43.32,714
43.4,997
43.48,1570
43.56,3064
43.64,6416
43.72,11169
43.8,8185
43.88,3209
43.96,1896
44.04,1041
44.12,733
44.2,570
44.28,461
44.36,386
44.44,336
44.52,309
44.6,283
44.68,250
44.76,253
44.84,242
44.92,230
45,250
45.08,264
45.16,276
45.24,298
45.32,368
45.4,433
45.48,653
45.56,1022
45.64,1776
45.72,2930
45.8,2458
45.88,950
45.96,627
46.04,428
46.12,324
46.2,245
46.28,220
46.36,218
46.44,180
46.52,167
46.6,174
46.68,148
46.76,142
46.84,152
46.92,144
47,137
47.08,137
47.16,150
47.24,139
47.32,148
47.4,141
47.48,154
47.56,200
47.64,331
47.72,502
47.8,372
47.88,217
47.96,158
48.04,138
48.12,141
48.2,123
48.28,125
48.36,116
48.44,120
48.52,103
48.6,108
48.68,108
48.76,126
48.84,111
48.92,118
49,108
49.08,117
49.16,113
49.24,136
49.32,122
49.4,154
49.48,156
49.56,212
49.64,331
49.72,428
49.8,256
49.88,187
49.96,144
50.04,145
50.12,137
50.2,132
50.28,131
50.36,170
50.44,199
50.52,251
50.6,366
50.68,235
50.76,179
50.84,145
50.92,156
51,169
51.08,167
51.16,132
51.24,136
51.32,101
51.4,125
51.48,117
51.56,108
51.64,106
51.72,114
51.8,113
51.88,102
51.96,100
52.04,84
52.12,93
52.2,111
52.28,121
52.36,100
52.44,95
52.52,110
52.6,78
52.68,91
52.76,88
52.84,98
52.92,87
53,96
53.08,104
53.16,109
53.24,123
53.32,118
53.4,114
53.48,119
53.56,98
53.64,96
53.72,107
53.8,110
53.88,86
53.96,109
54.04,120
54.12,110
54.2,84
54.28,83
54.36,104
54.44,98
54.52,94
54.6,103
54.68,108
54.76,118
54.84,122
54.92,144
55,183
55.08,222
55.16,203
55.24,160
55.32,138
55.4,118
55.48,110
55.56,109
55.64,122
55.72,109
55.8,116
55.88,109
55.96,114
56.04,98
56.12,104
56.2,104
56.28,123
56.36,109
56.44,115
56.52,104
56.6,112
56.68,107
56.76,127
56.84,109
56.92,100
57,115
57.08,92
57.16,112
57.24,160
57.32,150
57.4,147
57.48,118
57.56,112
57.64,128
57.72,126
57.8,135
57.88,113
57.96,125
58.04,127
58.12,140
58.2,142
58.28,155
58.36,168
58.44,172
58.52,215
58.6,352
58.68,365
58.76,305
58.84,412
58.92,741
59,762
59.08,372
59.16,309
59.24,213
59.32,186
59.4,172
59.48,185
59.56,184
59.64,183
59.72,221
59.8,244
59.88,311
59.96,401
60.04,671
60.12,1053
60.2,2128
60.28,2595
60.36,1308
60.44,695
60.52,424
60.6,280
60.68,247
60.76,217
60.84,191
60.92,183
61,159
61.08,162
61.16,157
61.24,144
61.32,152
61.4,148
61.48,148
61.56,144
61.64,167
61.72,154
61.8,156
61.88,167
61.96,180
62.04,233
62.12,290
62.2,464
62.28,754
62.36,872
62.44,534
62.52,362
62.6,258
62.68,217
62.76,213
62.84,200
62.92,216
63,240
63.08,268
63.16,334
63.24,434
63.32,690
63.4,1221
63.48,2104
63.56,2269
63.64,1291
63.72,730
63.8,498
63.88,374
63.96,324
64.04,312
64.12,386
64.2,541
64.28,967
64.36,865
64.44,523
64.52,320
64.6,257
64.68,225
64.76,217
64.84,221
64.92,281
65,364
65.08,672
65.16,796
65.24,553
65.32,334
65.4,232
65.48,185
65.56,184
65.64,155
65.72,141
65.8,136
65.88,128
65.96,146
66.04,130
66.12,133
66.2,138
66.28,96
66.36,129
66.44,139
66.52,138
66.6,125
66.68,118
66.76,132
66.84,115
66.92,129
67,123
67.08,139
67.16,121
67.24,136
67.32,143
67.4,135
67.48,136
67.56,148
67.64,137
67.72,174
67.8,181
67.88,259
67.96,301
68.04,278
68.12,230
68.2,186
68.28,189
68.36,197
68.44,183
68.52,208
68.6,236
68.68,283
68.76,388
68.84,588
68.92,1014
69,1842
69.08,1635
69.16,899
69.24,525
69.32,334
69.4,269
69.48,216
69.56,202
69.64,181
69.72,163
69.8,146
69.88,161
69.96,128
70.04,151
70.12,143
70.2,134
70.28,130
70.36,138
70.44,137
70.52,125
70.6,123
70.68,108
70.76,117
70.84,136
70.92,147
71,129
71.08,130
71.16,158
71.24,151
71.32,181
71.4,157
71.48,146
71.56,126
71.64,132
71.72,140
71.8,147
71.88,165
71.96,166
72.04,172
72.12,191
72.2,194
72.28,237
72.36,342
72.44,589
72.52,865
72.6,1173
72.68,841
72.76,385
72.84,267
72.92,216
73,184
73.08,166
73.16,175
73.24,145
73.32,161
73.4,153
73.48,143
73.56,166
73.64,148
73.72,129
73.8,185
73.88,194
73.96,211
74.04,225
74.12,333
74.2,570
74.28,891
74.36,753
74.44,519
74.52,309
74.6,235
74.68,220
74.76,206
74.84,213
74.92,241
75,333
75.08,440
75.16,401
75.24,237
75.32,225
75.4,276
75.48,366
75.56,329
75.64,225
75.72,181
75.8,157
75.88,149
75.96,158
76.04,145
76.12,155
76.2,159
76.28,164
76.36,135
76.44,132
76.52,128
76.6,145
76.68,130
76.76,136
76.84,126
76.92,135
77,132
77.08,158
77.16,150
77.24,164
77.32,222
77.4,224
77.48,199
77.56,193
77.64,149
77.72,150
77.8,132
77.88,132
77.96,152
78.04,152
78.12,165
78.2,150
78.28,174
78.36,192
78.44,223
78.52,247
78.6,312
78.68,439
78.76,651
78.84,950
78.92,1238
79,843
79.08,437
79.16,303
79.24,234
79.32,207
79.4,169
79.48,180
79.56,170
79.64,145
79.72,130
79.8,140
79.88,112
79.96,124
80.04,156
80.12,130
80.2,114
80.28,140
80.36,144
80.44,115
80.52,130
80.6,133
80.68,111
80.76,148
80.84,125
80.92,163
81,171
81.08,199
81.16,172
81.24,168
81.32,176
81.4,161
81.48,150
81.56,171
81.64,170
81.72,204
81.8,255
81.88,380
81.96,479
82.04,754
82.12,733
82.2,539
82.28,510
82.36,751
82.44,1004
82.52,782
82.6,552
82.68,516
82.76,610
82.84,590
82.92,515
83,545
83.08,735
83.16,1052
83.24,1033
83.32,728
83.4,467
83.48,316
83.56,256
83.64,215
83.72,192
83.8,173
83.88,186
83.96,167
84.04,162
84.12,153
84.2,140
84.28,156
84.36,138
84.44,141
84.52,147
84.6,105
84.68,138
84.76,150
84.84,151
84.92,143
85,141
85.08,165
85.16,168
85.24,221
85.32,303
85.4,405
85.48,350
85.56,286
85.64,224
85.72,287
85.8,327
85.88,299
85.96,245
86.04,219
86.12,194
86.2,137
86.28,131
86.36,153
86.44,130
86.52,130
86.6,121
86.68,141
86.76,143
86.84,122
86.92,128
87,144
87.08,120
87.16,135
87.24,131
87.32,131
87.4,128
87.48,156
87.56,152
87.64,145
87.72,153
87.8,138
87.88,138
87.96,146
88.04,129
88.12,139
88.2,165
88.28,179
88.36,228
88.44,220
88.52,177
88.6,159
88.68,129
88.76,128
88.84,124
88.92,125
89,118
89.08,125
89.16,118
89.24,117
89.32,123
89.4,130
89.48,136
89.56,119
89.64,132
89.72,123
89.8,140
89.88,146
89.96,144
90.04,155
90.12,158
90.2,172
90.28,204
90.36,269
90.44,300
90.52,253
90.6,205
90.68,178
90.76,166
90.84,157
90.92,131
91,149
91.08,148
91.16,133
91.24,148
91.32,164
91.4,165
91.48,211
91.56,239
91.64,295
91.72,636
91.8,720
91.88,537
91.96,402
92.04,275
92.12,208
92.2,178
92.28,168
92.36,154
92.44,153
92.52,143
92.6,139
92.68,143
92.76,148
92.84,135
92.92,126
93,139
93.08,124
93.16,134
93.24,140
93.32,116
93.4,124
93.48,123
93.56,121
93.64,131
93.72,114
93.8,121
93.88,123
93.96,135
94.04,127
94.12,130
94.2,129
94.28,124
94.36,119
94.44,117
94.52,133
94.6,133
94.68,159
94.76,155
94.84,155
94.92,153
95,137
95.08,143
95.16,140
95.24,147
95.32,138
95.4,153
95.48,158
95.56,177
95.64,181
95.72,206
95.8,245
95.88,276
95.96,317
96.04,443
96.12,624
96.2,951
96.28,1075
96.36,1111
96.44,663
96.52,513
96.6,309
96.68,260
96.76,217
96.84,198
96.92,177
97,165
97.08,164
97.16,166
97.24,151
97.32,140
97.4,153
97.48,139
97.56,151
97.64,160
97.72,145
97.8,168
97.88,196
97.96,239
98.04,281
98.12,238
98.2,207
98.28,193
98.36,209
98.44,203
98.52,187
98.6,167
98.68,151
98.76,143
98.84,144
98.92,172
99,195
99.08,252
99.16,268
99.24,244
99.32,203
99.4,159
99.48,149
99.56,136
99.64,135
99.72,118
99.8,127
99.88,123
99.96,131
100.04,117
100.12,119
100.2,128
100.28,126
100.36,111
100.44,119
100.52,120
100.6,117
100.68,112
100.76,119
100.84,100
100.92,107
101,115
101.08,120
101.16,132
101.24,130
101.32,143
101.4,135
101.48,149
101.56,143
101.64,145
101.72,171
101.8,169
101.88,225
101.96,278
102.04,297
102.12,240
102.2,206
102.28,163
102.36,143
102.44,149
102.52,133
102.6,130
102.68,135
102.76,114
102.84,118
102.92,130
103,120
103.08,138
103.16,145
103.24,148
103.32,176
103.4,188
103.48,211
103.56,194
103.64,174
103.72,156
103.8,165
103.88,169
103.96,192
104.04,256
104.12,327
104.2,482
104.28,482
104.36,386
104.44,282
104.52,208
104.6,149
104.68,177
104.76,154
104.84,145
104.92,150
105,145
105.08,141
105.16,137
105.24,139
105.32,133
105.4,115
105.48,130
105.56,129
105.64,127
105.72,151
105.8,152
105.88,136
105.96,122
106.04,125
106.12,138
106.2,113
106.28,123
106.36,114
106.44,116
106.52,113
106.6,128
106.68,127
106.76,124
106.84,109
106.92,142
107,174
107.08,170
107.16,212
107.24,251
107.32,249
107.4,210
107.48,207
107.56,251
107.64,346
107.72,449
107.8,444
107.88,463
107.96,484
108.04,427
108.12,305
108.2,232
108.28,200
108.36,180
108.44,157
108.52,145
108.6,147
108.68,139
108.76,131
108.84,125
108.92,130
109,126
109.08,108
109.16,123
109.24,118
109.32,111
109.4,132
109.48,145
109.56,153
109.64,160
109.72,165
109.8,161
109.88,124
109.96,129
110.04,117
110.12,117
110.2,113
110.28,126
110.36,125
110.44,122
110.52,107
110.6,142
110.68,174
110.76,186
110.84,177
110.92,167
111,161
111.08,137
111.16,143
111.24,171
111.32,186
111.4,233
111.48,301
111.56,416
111.64,547
111.72,586
111.8,659
111.88,460
111.96,347
112.04,237
112.12,226
112.2,198
112.28,174
112.36,144
112.44,150
112.52,139
112.6,128
112.68,146
112.76,156
112.84,162
112.92,172
113,187
113.08,187
113.16,146
113.24,146
113.32,131
113.4,130
113.48,126
113.56,140
113.64,141
113.72,141
113.8,129
113.88,169
113.96,170
114.04,207
114.12,315
114.2,444
114.28,408
114.36,390
114.44,299
114.52,224
114.6,224
114.68,185
114.76,176
114.84,167
114.92,181
115,175
115.08,188
115.16,218
115.24,239
115.32,334
115.4,381
115.48,496
115.56,388
115.64,337
115.72,266
115.8,178
115.88,199
115.96,131
116.04,160
116.12,150
116.2,129
116.28,141
116.36,135
116.44,127
116.52,148
116.6,161
116.68,169
116.76,183
116.84,211
116.92,230
117,221
117.08,209
117.16,227
117.24,280
117.32,282
117.4,378
117.48,310
117.56,264
117.64,213
117.72,189
117.8,178
117.88,156
117.96,142
118.04,153
118.12,140
118.2,154
118.28,168
118.36,159
118.44,191
118.52,223
118.6,244
118.68,247
118.76,209
118.84,206
118.92,215
119,250
119.08,263
119.16,260
119.24,224
119.32,183
119.4,151
119.48,132
119.56,134
119.64,119
119.72,128
119.8,111
119.88,140
119.96,102
120,117