File: data/xrd_icdd_PDF/00-060-0201 (PD3).csv
10,1400
10.08,1415
10.16,1445
10.24,1435
10.32,1436
10.4,1427
10.48,1413
10.56,1443
10.64,1473
10.72,1381
10.8,1474
10.88,1375
10.96,1412
11.04,1330
11.12,1349
11.2,1406
11.28,1404
11.36,1415
11.44,1494
11.52,1469
11.6,1596
11.68,1936
11.76,2222
11.84,1545
11.92,1407
12,1382
12.08,1323
12.16,1414
12.24,1383
12.32,1371
12.4,1356
12.48,1314
12.56,1305
12.64,1295
12.72,1317
12.8,1327
12.88,1342
12.96,1292
13.04,1302
13.12,1332
13.2,1319
13.28,1303
13.36,1283
13.44,1293
13.52,1272
13.6,1311
13.68,1290
13.76,1305
13.84,1264
13.92,1339
14,1362
14.08,1231
14.16,1349
14.24,1298
14.32,1300
14.4,1315
14.48,1304
14.56,1247
14.64,1265
14.72,1291
14.8,1251
14.88,1315
14.96,1296
15.04,1328
15.12,1336
15.2,1382
15.28,1325
15.36,1257
15.44,1196
15.52,1390
15.6,1299
15.68,1361
15.76,1295
15.84,1302
15.92,1280
16,1295
16.08,1304
16.16,1309
16.24,1249
16.32,1279
16.4,1341
16.48,1321
16.56,1353
16.64,1289
16.72,1298
16.8,1270
16.88,1317
16.96,1361
17.04,1262
17.12,1290
17.2,1274
17.28,1323
17.36,1328
17.44,1253
17.52,1352
17.6,1382
17.68,1522
17.76,1742
17.84,2390
17.92,2998
18,2062
18.08,1453
18.16,1330
18.24,1313
18.32,1307
18.4,1291
18.48,1278
18.56,1247
18.64,1279
18.72,1245
18.8,1237
18.88,1244
18.96,1222
19.04,1236
19.12,1216
19.2,1341
19.28,1274
19.36,1273
19.44,1311
19.52,1253
19.6,1284
19.68,1289
19.76,1240
19.84,1282
19.92,1246
20,1230
20.08,1219
20.16,1217
20.24,1214
20.32,1214
20.4,1223
20.48,1164
20.56,1253
20.64,1215
20.72,1230
20.8,1243
20.88,1241
20.96,1281
21.04,1262
21.12,1271
21.2,1258
21.28,1174
21.36,1209
21.44,1140
21.52,1153
21.6,1196
21.68,1160
21.76,1225
21.84,1249
21.92,1276
22,1252
22.08,1168
22.16,1179
22.24,1238
22.32,1229
22.4,1193
22.48,1288
22.56,1534
22.64,1989
22.72,2970
22.8,2093
22.88,1426
22.96,1249
23.04,1308
23.12,1218
23.2,1249
23.28,1223
23.36,1262
23.44,1404
23.52,1446
23.6,1971
23.68,1650
23.76,1192
23.84,1144
23.92,1226
24,1106
24.08,1167
24.16,1200
24.24,1159
24.32,1111
24.4,1104
24.48,1215
24.56,1174
24.64,1152
24.72,1206
24.8,1134
24.88,1141
24.96,1162
25.04,1139
25.12,1129
25.2,1180
25.28,1172
25.36,1135
25.44,1188
25.52,1118
25.6,1186
25.68,1143
25.76,1163
25.84,1163
25.92,1173
26,1217
26.08,1244
26.16,1172
26.24,1322
26.32,1452
26.4,1938
26.48,3217
26.56,3295
26.64,1879
26.72,1416
26.8,1314
26.88,1280
26.96,1419
27.04,1604
27.12,2394
27.2,2443
27.28,1940
27.36,1488
27.44,1291
27.52,1187
27.6,1288
27.68,1269
27.76,1272
27.84,1163
27.92,1184
28,1155
28.08,1252
28.16,1392
28.24,1572
28.32,1784
28.4,1466
28.48,1251
28.56,1200
28.64,1176
28.72,1131
28.8,1245
28.88,1234
28.96,1219
29.04,1223
29.12,1186
29.2,1218
29.28,1269
29.36,1163
29.44,1206
29.52,1280
29.6,1287
29.68,1333
29.76,1239
29.84,1195
29.92,1160
30,1208
30.08,1154
30.16,1157
30.24,1184
30.32,1185
30.4,1193
30.48,1203
30.56,1208
30.64,1174
30.72,1232
30.8,1234
30.88,1177
30.96,1226
31.04,1226
31.12,1317
31.2,1414
31.28,1547
31.36,2133
31.44,4040
31.52,3932
31.6,2397
31.68,1538
31.76,1386
31.84,1258
31.92,1307
32,1159
32.08,1260
32.16,1259
32.24,1275
32.32,1268
32.4,1200
32.48,1258
32.56,1212
32.64,1172
32.72,1182
32.8,1168
32.88,1146
32.96,1232
33.04,1209
33.12,1218
33.2,1186
33.28,1226
33.36,1205
33.44,1250
33.52,1205
33.6,1235
33.68,1176
33.76,1253
33.84,1214
33.92,1205
34,1228
34.08,1214
34.16,1182
34.24,1257
34.32,1238
34.4,1289
34.48,1260
34.56,1273
34.64,1284
34.72,1345
34.8,1395
34.88,1540
34.96,1501
35.04,1625
35.12,1621
35.2,1785
35.28,1988
35.36,2358
35.44,3129
35.52,5236
35.6,12033
35.68,26253
35.76,22234
35.84,11112
35.92,4628
36,3005
36.08,2672
36.16,3252
36.24,5353
36.32,6435
36.4,4418
36.48,2493
36.56,2113
36.64,2044
36.72,2081
36.8,2137
36.88,2615
36.96,3248
37.04,4909
37.12,10936
37.2,15428
37.28,10230
37.36,4085
37.44,2528
37.52,1993
37.6,1867
37.68,1690
37.76,1735
37.84,1663
37.92,1829
38,1932
38.08,1994
38.16,2385
38.24,3591
38.32,7935
38.4,9735
38.48,6385
38.56,3001
38.64,2066
38.72,1933
38.8,1729
38.88,1757
38.96,1675
39.04,1788
39.12,1796
39.2,1778
39.28,1916
39.36,2301
39.44,2797
39.52,4475
39.6,8746
39.68,13699
39.76,12957
39.84,7744
39.92,3650
40,2389
40.08,1973
40.16,1752
40.24,1681
40.32,1547
40.4,1468
40.48,1495
40.56,1441
40.64,1453
40.72,1498
40.8,1575
40.88,1414
40.96,1404
41.04,1366
41.12,1442
41.2,1395
41.28,1376
41.36,1392
41.44,1371
41.52,1375
41.6,1364
41.68,1333
41.76,1444
41.84,1343
41.92,1378
42,1380
42.08,1339
42.16,1345
42.24,1345
42.32,1288
42.4,1381
42.48,1389
42.56,1405
42.64,1406
42.72,1477
42.8,1640
42.88,1978
42.96,2719
43.04,3074
43.12,2509
43.2,1995
43.28,1525
43.36,1396
43.44,1445
43.52,1443
43.6,1426
43.68,1377
43.76,1365
43.84,1412
43.92,1438
44,1472
44.08,1523
44.16,1469
44.24,1549
44.32,1610
44.4,1785
44.48,2082
44.56,2608
44.64,4952
44.72,9605
44.8,7436
44.88,5152
44.96,2723
45.04,2163
45.12,1988
45.2,1937
45.28,2215
45.36,3450
45.44,6547
45.52,5564
45.6,4310
45.68,2329
45.76,1740
45.84,1542
45.92,1508
46,1446
46.08,1430
46.16,1394
46.24,1392
46.32,1377
46.4,1478
46.48,1400
46.56,1556
46.64,1652
46.72,1591
46.8,1408
46.88,1399
46.96,1313
47.04,1396
47.12,1410
47.2,1350
47.28,1404
47.36,1419
47.44,1485
47.52,1848
47.6,2062
47.68,1988
47.76,1945
47.84,1782
47.92,1827
48,2122
48.08,2298
48.16,1984
48.24,1747
48.32,1535
48.4,1426
48.48,1455
48.56,1546
48.64,1525
48.72,1439
48.8,1333
48.88,1324
48.96,1278
49.04,1310
49.12,1353
49.2,1317
49.28,1351
49.36,1285
49.44,1262
49.52,1309
49.6,1267
49.68,1338
49.76,1346
49.84,1426
49.92,1623
50,1612
50.08,1496
50.16,1396
50.24,1380
50.32,1376
50.4,1469
50.48,1550
50.56,1572
50.64,1750
50.72,2513
50.8,2550
50.88,2267
50.96,1758
51.04,1531
51.12,1522
51.2,1470
51.28,1439
51.36,1387
51.44,1355
51.52,1301
51.6,1283
51.68,1208
51.76,1263
51.84,1319
51.92,1253
52,1205
52.08,1205
52.16,1217
52.24,1219
52.32,1228
52.4,1251
52.48,1263
52.56,1269
52.64,1291
52.72,1247
52.8,1308
52.88,1250
52.96,1379
53.04,1454
53.12,1602
53.2,1441
53.28,1444
53.36,1327
53.44,1365
53.52,1305
53.6,1268
53.68,1219
53.76,1301
53.84,1185
53.92,1226
54,1278
54.08,1226
54.16,1244
54.24,1252
54.32,1255
54.4,1287
54.48,1329
54.56,1248
54.64,1239
54.72,1234
54.8,1303
54.88,1250
54.96,1312
55.04,1231
55.12,1324
55.2,1280
55.28,1358
55.36,1280
55.44,1376
55.52,1489
55.6,1797
55.68,2155
55.76,2165
55.84,2241
55.92,2491
56,3141
56.08,2717
56.16,2614
56.24,2407
56.32,2265
56.4,1997
56.48,1912
56.56,1773
56.64,2021
56.72,2323
56.8,2009
56.88,1955
56.96,1624
57.04,1451
57.12,1403
57.2,1462
57.28,1386
57.36,1426
57.44,1542
57.52,1412
57.6,1497
57.68,1328
57.76,1282
57.84,1287
57.92,1233
58,1326
58.08,1320
58.16,1281
58.24,1241
58.32,1435
58.4,1385
58.48,1482
58.56,1461
58.64,1572
58.72,1763
58.8,2100
58.88,2889
58.96,2487
59.04,2356
59.12,1765
59.2,1580
59.28,1504
59.36,1399
59.44,1465
59.52,1394
59.6,1530
59.68,1719
59.76,1949
59.84,1695
59.92,1690
60,1638
60.08,1707
60.16,1880
60.24,2317
60.32,3935
60.4,3779
60.48,3117
60.56,2760
60.64,1944
60.72,1554
60.8,1489
60.88,1432
60.96,1459
61.04,1474
61.12,1549
61.2,1665
61.28,1657
61.36,1697
61.44,1706
61.52,2066
61.6,2001
61.68,1782
61.76,1644
61.84,1479
61.92,1355
62,1396
62.08,1414
62.16,1392
62.24,1334
62.32,1400
62.4,1346
62.48,1383
62.56,1316
62.64,1377
62.72,1362
62.8,1384
62.88,1444
62.96,1368
63.04,1412
63.12,1506
63.2,1653
63.28,2207
63.36,2053
63.44,1882
63.52,1787
63.6,1648
63.68,1886
63.76,2433
63.84,2538
63.92,2476
64,2236
64.08,2009
64.16,1711
64.24,1551
64.32,1510
64.4,1405
64.48,1462
64.56,1483
64.64,1520
64.72,1506
64.8,1787
64.88,2370
64.96,2933
65.04,2380
65.12,2376
65.2,2023
65.28,1835
65.36,1769
65.44,1777
65.52,2052
65.6,2844
65.68,3861
65.76,2964
65.84,2901
65.92,2198
66,1737
66.08,1649
66.16,1460
66.24,1385
66.32,1420
66.4,1442
66.48,1515
66.56,1448
66.64,1515
66.72,1617
66.8,2043
66.88,1776
66.96,1768
67.04,1633
67.12,1454
67.2,1390
67.28,1397
67.36,1448
67.44,1329
67.52,1445
67.6,1531
67.68,1675
67.76,1781
67.84,1580
67.92,1575
68,1504
68.08,1463
68.16,1438
68.24,1448
68.32,1335
68.4,1472
68.48,1637
68.56,1543
68.64,1507
68.72,1505
68.8,1480
68.88,1508
68.96,1639
69.04,1972
69.12,2440
69.2,2146
69.28,2070
69.36,1933
69.44,1650
69.52,1533
69.6,1461
69.68,1439
69.76,1454
69.84,1466
69.92,1374
70,1412
70.08,1392
70.16,1332
70.24,1401
70.32,1314
70.4,1403
70.48,1410
70.56,1347
70.64,1324
70.72,1313
70.8,1364
70.88,1348
70.96,1286
71.04,1379
71.12,1342
71.2,1251
71.28,1264
71.36,1298
71.44,1342
71.52,1330
71.6,1416
71.68,1383
71.76,1328
71.84,1402
71.92,1343
72,1356
72.08,1345
72.16,1279
72.24,1318
72.32,1360
72.4,1445
72.48,1430
72.56,1430
72.64,1510
72.72,1734
72.8,2180
72.88,2564
72.96,2001
73.04,2024
73.12,1866
73.2,1602
73.28,1549
73.36,1422
73.44,1507
73.52,1450
73.6,1405
73.68,1430
73.76,1515
73.84,1541
73.92,1635
74,1863
74.08,2201
74.16,2216
74.24,2479
74.32,2953
74.4,2992
74.48,3403
74.56,3245
74.64,2819
74.72,2550
74.8,2201
74.88,1927
74.96,1846
75.04,1925
75.12,2270
75.2,2257
75.28,2044
75.36,1976
75.44,1850
75.52,1674
75.6,1618
75.68,1533
75.76,1499
75.84,1517
75.92,1488
76,1514
76.08,1549
76.16,1568
76.24,1563
76.32,1767
76.4,2185
76.48,3142
76.56,2836
76.64,2588
76.72,2637
76.8,2389
76.88,2110
76.96,1862
77.04,1954
77.12,1755
77.2,1726
77.28,1921
77.36,2162
77.44,2327
77.52,1916
77.6,1814
77.68,1806
77.76,1544
77.84,1475
77.92,1429
78,1405
78.08,1387
78.16,1402
78.24,1392
78.32,1405
78.4,1409
78.48,1432
78.56,1441
78.64,1465
78.72,1491
78.8,1530
78.88,1789
78.96,2189
79.04,2319
79.12,2112
79.2,2252
79.28,2037
79.36,1861
79.44,1717
79.52,1601
79.6,1495
79.68,1419
79.76,1325
79.84,1359
79.92,1312
80,1326
80.08,1328
80.16,1353
80.24,1372
80.32,1375
80.4,1386
80.48,1413
80.56,1432
80.64,1489
80.72,1667
80.8,1946
80.88,1699
80.96,1630
81.04,1701
81.12,1500
81.2,1431
81.28,1407
81.36,1381
81.44,1302
81.52,1336
81.6,1328
81.68,1362
81.76,1299
81.84,1364
81.92,1339
82,1424
82.08,1499
82.16,1681
82.24,1523
82.32,1534
82.4,1485
82.48,1475
82.56,1422
82.64,1438
82.72,1503
82.8,1608
82.88,1731
82.96,1725
83.04,1730
83.12,1662
83.2,1664
83.28,1617
83.36,1538
83.44,1458
83.52,1571
83.6,1541
83.68,1721
83.76,1883
83.84,1852
83.92,1805
84,1732
84.08,1661
84.16,1500
84.24,1453
84.32,1428
84.4,1363
84.48,1434
84.56,1326
84.64,1409
84.72,1376
84.8,1397
84.88,1272
84.96,1337
85.04,1373
85.12,1323
85.2,1367
85.28,1346
85.36,1306
85.44,1398
85.52,1454
85.6,1467
85.68,1442
85.76,1360
85.84,1371
85.92,1353
86,1390
86.08,1375
86.16,1337
86.24,1399
86.32,1462
86.4,1398
86.48,1440
86.56,1430
86.64,1415
86.72,1375
86.8,1430
86.88,1508
86.96,1508
87.04,1426
87.12,1474
87.2,1563
87.28,1687
87.36,1615
87.44,1456
87.52,1507
87.6,1532
87.68,1433
87.76,1401
87.84,1406
87.92,1366
88,1299
88.08,1316
88.16,1294
88.24,1333
88.32,1281
88.4,1312
88.48,1280
88.56,1317
88.64,1332
88.72,1291
88.8,1297
88.88,1275
88.96,1282
89.04,1326
89.12,1328
89.2,1299
89.28,1316
89.36,1389
89.44,1452
89.52,1469
89.6,1391
89.68,1408
89.76,1446
89.84,1430
89.92,1435
90,1535
90.08,1655
90.16,1532
90.24,1458
90.32,1530
90.4,1424
90.48,1380
90.56,1335
90.64,1315
90.72,1342
90.8,1335
90.88,1294
90.96,1360
91.04,1312
91.12,1310
91.2,1322
91.28,1321
91.36,1299
91.44,1348
91.52,1331
91.6,1399
91.68,1429
91.76,1404
91.84,1378
91.92,1368
92,1376
92.08,1383
92.16,1370
92.24,1345
92.32,1373
92.4,1360
92.48,1298
92.56,1277
92.64,1338
92.72,1343
92.8,1286
92.88,1336
92.96,1444
93.04,1435
93.12,1506
93.2,1469
93.28,1426
93.36,1534
93.44,1530
93.52,1621
93.6,1600
93.68,1565
93.76,1657
93.84,1681
93.92,1777
94,1795
94.08,1705
94.16,1645
94.24,1670
94.32,1647
94.4,1614
94.48,1463
94.56,1491
94.64,1441
94.72,1530
94.8,1399
94.88,1352
94.96,1328
95.04,1349
95.12,1341
95.2,1319
95.28,1311
95.36,1302
95.44,1294
95.52,1306
95.6,1368
95.68,1405
95.76,1375
95.84,1379
95.92,1432
96,1396
96.08,1327
96.16,1380
96.24,1333
96.32,1427
96.4,1336
96.48,1294
96.56,1321
96.64,1292
96.72,1274
96.8,1310
96.88,1333
96.96,1354
97.04,1289
97.12,1291
97.2,1314
97.28,1292
97.36,1307
97.44,1388
97.52,1300
97.6,1375
97.68,1352
97.76,1390
97.84,1386
97.92,1485
98,1480
98.08,1517
98.16,1509
98.24,1543
98.32,1692
98.4,1798
98.48,1671
98.56,1648
98.64,1684
98.72,1994
98.8,1964
98.88,2035
98.96,2019
99.04,2154
99.12,2081
99.2,1892
99.28,1785
99.36,1853
99.44,1912
99.52,2021
99.6,1975
99.68,1773
99.76,1689
99.84,1691
99.92,1623
100,1567
100.08,1525
100.16,1460
100.24,1459
100.32,1513
100.4,1445
100.48,1451
100.56,1409
100.64,1535
100.72,1478
100.8,1425
100.88,1393
100.96,1473
101.04,1523
101.12,1390
101.2,1518
101.28,1444
101.36,1387
101.44,1466
101.52,1375
101.6,1409
101.68,1383
101.76,1424
101.84,1407
101.92,1450
102,1522
102.08,1442
102.16,1611
102.24,1572
102.32,1504
102.4,1516
102.48,1472
102.56,1505
102.64,1543
102.72,1523
102.8,1613
102.88,1561
102.96,1529
103.04,1485
103.12,1503
103.2,1466
103.28,1451
103.36,1365
103.44,1382