File: data/xrd_icdd_PDF/00-068-0200 (PD3).csv
4.30529,381.429
4.36529,392.478
4.42529,375.505
4.48529,394.152
4.54529,382.8491
4.60529,403.841
4.66529,400.943
4.72529,383.177
4.78529,371.982
4.84529,413.103
4.90529,384.08
4.96529,388.518
5.02529,391.406
5.08529,382.471
5.14529,407.499
5.20529,402.903
5.26529,384.643
5.32529,417.022
5.38529,398.344
5.44529,376.846
5.50529,402.463
5.56529,399.927
5.62529,395.3508
5.68529,403.496
5.74529,378.9
5.80529,381.969
5.86529,384.706
5.92529,380.288
5.98529,410.645
6.04529,423.505
6.10529,386.1977
6.16529,358.106
6.22529,375.689
6.28529,374.628
6.34529,352.72
6.40529,405.022
6.46529,375.328
6.52529,384.487
6.58529,360.828
6.64529,367.581
6.70529,363.352
6.76529,378.881
6.82529,390.49
6.88529,360.256
6.94529,398.4582
7.00529,365.666
7.06529,367.425
7.12529,397.323
7.18529,370.943
7.24529,368.953
7.30529,378.727
7.36529,381.296
7.42529,389.164
7.48529,369.713
7.54529,375.762
7.60529,364.77
7.66529,353.165
7.72529,372.272
7.78529,369.638
7.84529,383.856
7.90529,357.174
7.96529,389.654
8.02529,360.387
8.08529,371.852
8.14529,357.39
8.20529,369.196
8.26529,364.82
8.32529,336.816
8.38529,366.4972
8.44529,369.5059
8.50529,363.331
8.56529,338.421
8.62529,367.317
8.68529,368.428
8.74529,363.988
8.80529,353.7
8.86529,368.47
8.92529,353.1511
8.98529,379.829
9.04529,368.8972
9.10529,383.206
9.16529,380.0584
9.22529,361.588
9.28529,351.746
9.34529,356.174
9.40529,367.282
9.46529,355.045
9.52529,362.425
9.58529,376.505
9.64529,362.339
9.70529,353.84
9.76529,356.922
9.82529,371.122
9.88529,352.709
9.94529,374.487
10.00529,344.048
10.06529,357.066
10.12529,374.224
10.18529,362.976
10.24529,372.395
10.30529,368.191
10.36529,345.174
10.42529,343.573
10.48529,380.616
10.54529,363.754
10.60529,357.652
10.66529,369.916
10.72529,367.956
10.78529,384.472
10.84529,385.999
10.90529,352.193
10.96529,367.843
11.02529,361.694
11.08529,353.842
11.14529,365.329
11.20529,388.538
11.26529,365.1925
11.32529,401.7555
11.38529,377.4313
11.44529,375.328
11.50529,392.285
11.56529,364.579
11.62529,388.37
11.68529,373.2062
11.74529,371
11.80529,387.738
11.86529,366.507
11.92529,377.382
11.98529,376.659
12.04529,386.083
12.10529,381.323
12.16529,369.064
12.22529,363.095
12.28529,373.645
12.34529,361.802
12.40529,345.371
12.46529,347.734
12.52529,363.164
12.58529,358.636
12.64529,347.189
12.70529,344.4
12.76529,335.371
12.82529,328.7
12.88529,318.163
12.94529,345.861
13.00529,358.2232
13.06529,333.6668
13.12529,357.414
13.18529,311.27
13.24529,319.033
13.30529,309.4813
13.36529,286.631
13.42529,310.572
13.48529,294.454
13.54529,307.449
13.60529,310.647
13.66529,324.025
13.72529,310.331
13.78529,315.997
13.84529,304.034
13.90529,293.67
13.96529,300.312
14.02529,300.773
14.08529,312.091
14.14529,296.323
14.20529,306.554
14.26529,290.27
14.32529,288.443
14.38529,300.206
14.44529,284.934
14.50529,270.489
14.56529,292.77
14.62529,286.58
14.68529,275.649
14.74529,296.954
14.80529,278.872
14.86529,293.517
14.92529,291.171
14.98529,291.12
15.04529,267.786
15.10529,275.832
15.16529,284.066
15.22529,271.6909
15.28529,265.156
15.34529,277.887
15.40529,273.617
15.46529,280.794
15.52529,264.542
15.58529,282.504
15.64529,273.183
15.70529,263.992
15.76529,261.242
15.82529,251.804
15.88529,255.763
15.94529,266.182
16.00529,251.026
16.06529,235.7869
16.12529,259.076
16.18529,223.408
16.24529,259.999
16.30529,263.409
16.36529,247.534
16.42529,217.744
16.48529,254.198
16.54529,258.3359
16.60529,231.276
16.66529,252.28
16.72529,259.331
16.78529,244.072
16.84529,231.357
16.90529,245.812
16.96529,250.489
17.02529,245.699
17.08529,248.898
17.14529,242.809
17.20529,234.014
17.26529,258.115
17.32529,239.335
17.38529,242.16
17.44529,226.333
17.50529,233.001
17.56529,223.421
17.62529,228.888
17.68529,225.797
17.74529,235.305
17.80529,235.825
17.86529,228.911
17.92529,233.6528
17.98529,228.9845
18.04529,220.013
18.10529,221.882
18.16529,229.609
18.22529,219.113
18.28529,223.683
18.34529,207.976
18.40529,227.928
18.46529,217.919
18.52529,215.338
18.58529,222.111
18.64529,218.804
18.70529,230.391
18.76529,204.802
18.82529,203.9807
18.88529,212.46
18.94529,227.989
19.00529,212.5
19.06529,214.79
19.12529,207.223
19.18529,204.101
19.24529,207.544
19.30529,212.863
19.36529,197.554
19.42529,212.441
19.48529,209.826
19.54529,210.48
19.60529,185.9
19.66529,200.915
19.72529,209.322
19.78529,203.206
19.84529,219.648
19.90529,195.816
19.96529,178.763
20.02529,199.6427
20.08529,193.767
20.14529,184.192
20.20529,188.86
20.26529,204.141
20.32529,197.42
20.38529,187.349
20.44529,186.53
20.50529,182.867
20.56529,197.898
20.62529,200.772
20.68529,182.143
20.74529,175.153
20.80529,195.093
20.86529,184.608
20.92529,197.665
20.98529,185.866
21.04529,193.447
21.10529,199.468
21.16529,181.865
21.22529,184.201
21.28529,181.703
21.34529,177.793
21.40529,177.728
21.46529,184.346
21.52529,168.867
21.58529,185.035
21.64529,176.955
21.70529,165.778
21.76529,185.679
21.82529,179.855
21.88529,177.643
21.94529,174.064
22.00529,173.021
22.06529,176.409
22.12529,172.1211
22.18529,179.995
22.24529,163.918
22.30529,165.029
22.36529,177.716
22.42529,185.564
22.48529,176.952
22.54529,164.323
22.60529,171.315
22.66529,154.531
22.72529,164.264
22.78529,157.055
22.84529,165.45
22.90529,164.379
22.96529,159.1157
23.02529,178.554
23.08529,159.655
23.14529,159.909
23.20529,142.947
23.26529,161.893
23.32529,137.985
23.38529,158.663
23.44529,153.806
23.50529,162.394
23.56529,151.828
23.62529,147.23
23.68529,146.36
23.74529,156.032
23.80529,154.991
23.86529,146.032
23.92529,158.987
23.98529,147.164
24.04529,130.342
24.10529,152.436
24.16529,147.433
24.22529,150.684
24.28529,144.059
24.34529,154.5554
24.40529,144.567
24.46529,147.219
24.52529,156.632
24.58529,153.659
24.64529,150.9791
24.70529,147.592
24.76529,144.773
24.82529,138.147
24.88529,150.819
24.94529,145.943
25.00529,130.409
25.06529,130.61
25.12529,146.906
25.18529,141.255
25.24529,116.782
25.30529,145.087
25.36529,148.564
25.42529,134.069
25.48529,138.638
25.54529,135.593
25.60529,137.966
25.66529,134.802
25.72529,139.316
25.78529,136.935
25.84529,132.952
25.90529,132.5518
25.96529,133.213
26.02529,139.816
26.08529,122.955
26.14529,152.805
26.20529,136.55
26.26529,142.68
26.32529,140.437
26.38529,126.365
26.44529,133.794
26.50529,150.509
26.56529,138.365
26.62529,143.242
26.68529,130.745
26.74529,145.9228
26.80529,128.832
26.86529,128.143
26.92529,119.692
26.98529,139.3373
27.04529,129.626
27.10529,141.658
27.16529,140.258
27.22529,134.338
27.28529,137.317
27.34529,143.204
27.40529,150.577
27.46529,139.761
27.52529,154.001
27.58529,135.475
27.64529,155.716
27.70529,131.197
27.76529,136.652
27.82529,143.112
27.88529,154.027
27.94529,148.479
28.00529,152.828
28.06529,146.183
28.12529,163.921
28.18529,141.592
28.24529,154.827
28.30529,180.215
28.36529,159.234
28.42529,181.485
28.48529,177.8977
28.54529,184.672
28.60529,182.107
28.66529,180.176
28.72529,187.541
28.78529,187.039
28.84529,200.822
28.90529,207.2906
28.96529,212.016
29.02529,225.877
29.08529,233.701
29.14529,268.241
29.20529,255.837
29.26529,306.986
29.32529,301.1337
29.38529,333.359
29.44529,370.996
29.50529,385.805
29.56529,426.326
29.62529,482.4764
29.68529,572.9864
29.74529,680.456
29.80529,801.641
29.86529,1048.61
29.92529,1306.85
29.98529,1666.71
30.04529,1982.9
30.10529,2298.8
30.16529,2529.28
30.22529,2670.06
30.28529,2553.01
30.34529,2326.65
30.40529,1953.6
30.46529,1643.7
30.52529,1297.04
30.58529,1035.76
30.64529,813.901
30.70529,683.084
30.76529,544.023
30.82529,450.258
30.88529,400.417
30.94529,360.301
31.00529,326.6538
31.06529,297.435
31.12529,262.5903
31.18529,259.973
31.24529,233.8
31.30529,248.249
31.36529,223.615
31.42529,199.638
31.48529,213.359
31.54529,187.278
31.60529,183.9903
31.66529,179.766
31.72529,162.568
31.78529,179.041
31.84529,161.377
31.90529,165.845
31.96529,166.8872
32.02529,149.797
32.08529,140.173
32.14529,143.506
32.20529,144.544
32.26529,138.303
32.32529,144.294
32.38529,119.04
32.44529,129.301
32.50529,136.983
32.56529,139.18
32.62529,129.426
32.68529,113.99
32.74529,130.263
32.80529,132.632
32.86529,129.462
32.92529,125.12
32.98529,135.6085
33.04529,119.195
33.10529,145.3734
33.16529,121.156
33.22529,134.801
33.28529,127.175
33.34529,121.674
33.40529,123.493
33.46529,125.615
33.52529,122.754
33.58529,115.757
33.64529,128.561
33.70529,124.427
33.76529,126.669
33.82529,130.0057
33.88529,125.278
33.94529,138.121
34.00529,149.835
34.06529,155.006
34.12529,168.628
34.18529,184.7011
34.24529,207.348
34.30529,216.923
34.36529,255.582
34.42529,287.634
34.48529,300.65
34.54529,343.218
34.60529,336.113
34.66529,324.156
34.72529,324.024
34.78529,292.5214
34.84529,298.232
34.90529,300.696
34.96529,297.568
35.02529,336.437
35.08529,338.461
35.14529,410.566
35.20529,450.763
35.26529,459.645
35.32529,468.337
35.38529,404.632
35.44529,371.868
35.50529,297.171
35.56529,248.374
35.62529,209.351
35.68529,175.828
35.74529,158.922
35.80529,137.435
35.86529,133.443
35.92529,127.332
35.98529,109.7933
36.04529,111.711
36.10529,105.769
36.16529,105.475
36.22529,102.064
36.28529,100.975
36.34529,96.1647
36.40529,102.049
36.46529,80.9826
36.52529,84.04634
36.58529,80.35646
36.64529,95.22922
36.70529,90.0608
36.76529,88.6629
36.82529,89.50985
36.88529,90.24091
36.94529,80.50757
37.00529,64.80049
37.06529,90.10811
37.12529,79.70214
37.18529,80.0675
37.24529,74.73979
37.30529,86.88445
37.36529,85.46371
37.42529,84.74892
37.48529,84.7524
37.54529,73.5296
37.60529,78.16414
37.66529,75.74922
37.72529,75.05865
37.78529,66.19987
37.84529,90.42829
37.90529,78.74758
37.96529,68.62189
38.02529,82.18177
38.08529,73.42007
38.14529,73.72811
38.20529,72.33654
38.26529,75.83465
38.32529,69.17591
38.38529,69.69999
38.44529,62.35546
38.50529,66.93349
38.56529,71.96324
38.62529,70.53841
38.68529,84.68734
38.74529,76.43521
38.80529,69.53097
38.86529,61.52154
38.92529,66.11418
38.98529,76.68288
39.04529,65.84974
39.10529,62.61194
39.16529,76.87296
39.22529,65.60762
39.28529,71.09942
39.34529,77.04783
39.40529,65.20336
39.46529,67.38317
39.52529,65.40684
39.58529,66.7948
39.64529,70.94325
39.70529,65.9212
39.76529,59.80379
39.82529,57.38928
39.88529,61.862
39.94529,54.54532
40.00529,75.6028
40.06529,70.9911
40.12529,63.75695
40.18529,67.41878
40.24529,64.57141
40.30529,60.03284
40.36529,61.62835
40.42529,59.17998
40.48529,59.53017
40.54529,55.49807
40.60529,61.73527
40.66529,62.06392
40.72529,46.74791
40.78529,69.1481
40.84529,64.00073
40.90529,57.75992
40.96529,50.74599
41.02529,71.95503
41.08529,58.15635
41.14529,59.51203
41.20529,73.95967
41.26529,70.24093
41.32529,63.98035
41.38529,67.37903
41.44529,59.37139
41.50529,62.86566
41.56529,53.96699
41.62529,65.92273
41.68529,63.36322
41.74529,68.38604
41.80529,75.54163
41.86529,59.46668
41.92529,69.37358
41.98529,61.41338
42.04529,74.82586
42.10529,62.88866
42.16529,51.35128
42.22529,63.38012
42.28529,62.2209
42.34529,54.13504
42.40529,63.6894
42.46529,65.77765
42.52529,71.98196
42.58529,74.05291
42.64529,69.63876
42.70529,81.77608
42.76529,72.5584
42.82529,97.85364
42.88529,94.5979
42.94529,85.27672
43.00529,96.04246
43.06529,96.34889
43.12529,95.40146
43.18529,106.011
43.24529,88.82296
43.30529,94.17862
43.36529,70.34016
43.42529,69.97511
43.48529,65.65014
43.54529,74.25663
43.60529,71.59021
43.66529,59.60693
43.72529,72.66492
43.78529,67.66024
43.84529,68.95351
43.90529,56.58675
43.96529,67.21942
44.02529,61.62012
44.08529,62.14004
44.14529,70.29279
44.20529,70.85527
44.26529,59.81475
44.32529,58.77042
44.38529,54.60517
44.44529,54.9771
44.50529,56.46372
44.56529,54.77997
44.62529,54.38771
44.68529,57.25715
44.74529,63.36868
44.80529,60.62668
44.86529,60.60318
44.92529,58.33169
44.98529,58.51692
45.04529,61.03923
45.10529,59.41811
45.16529,56.3235
45.22529,65.39436
45.28529,54.66837
45.34529,60.87269
45.40529,54.10454
45.46529,56.21847
45.52529,52.08794
45.58529,56.38452
45.64529,70.27711
45.70529,52.99764
45.76529,62.68384
45.82529,51.4359
45.88529,58.39323
45.94529,59.82975
46.00529,51.74038
46.06529,61.64851
46.12529,65.95164
46.18529,56.32992
46.24529,61.23991
46.30529,68.89451
46.36529,59.24694
46.42529,60.17097
46.48529,66.40417
46.54529,62.76676
46.60529,60.07154
46.66529,59.84558
46.72529,54.62373
46.78529,55.73159
46.84529,60.96418
46.90529,64.76875
46.96529,68.56562
47.02529,66.87978
47.08529,71.10214
47.14529,68.48313
47.20529,77.28637
47.26529,81.72455
47.32529,72.34448
47.38529,69.43607
47.44529,71.69068
47.50529,56.08856
47.56529,66.83943
47.62529,65.21141
47.68529,66.82054
47.74529,66.59438
47.80529,62.62862
47.86529,66.05629
47.92529,73.81554
47.98529,59.97871
48.04529,72.18491
48.10529,87.15299
48.16529,83.55032
48.22529,79.85643
48.28529,73.31919
48.34529,82.35747
48.40529,80.89938
48.46529,96.52727
48.52529,79.6506
48.58529,85.44022
48.64529,87.08196
48.70529,88.07173
48.76529,89.3251
48.82529,100.864
48.88529,98.84174
48.94529,100.494
49.00529,117.154
49.06529,122.028
49.12529,131.173
49.18529,129.155
49.24529,142.371
49.30529,148.453
49.36529,163.941
49.42529,161.802
49.48529,171.396
49.54529,192.716
49.60529,239.002
49.66529,236.503
49.72529,265.995
49.78529,348.595
49.84529,371.494
49.90529,424.518
49.96529,510.636
50.02529,587.509
50.08529,668.817
50.14529,762.374
50.20529,789.617
50.26529,842.591
50.32529,835.693
50.38529,845.357
50.44529,813.495
50.50529,782.967
50.56529,775.898
50.62529,741.769
50.68529,713.119
50.74529,647.686
50.80529,635.387
50.86529,586.141
50.92529,530.541
50.98529,497.463
51.04529,401.412
51.10529,359.605
51.16529,302.043
51.22529,265.231
51.28529,230.471
51.34529,201.745
51.40529,173.348
51.46529,156.805
51.52529,148.244
51.58529,121.226
51.64529,115.377
51.70529,102.322
51.76529,111.872
51.82529,101.496
51.88529,85.50767
51.94529,94.09323
52.00529,89.41407
52.06529,89.11003
52.12529,90.27524
52.18529,80.57349
52.24529,76.74545
52.30529,77.62096
52.36529,72.57436
52.42529,77.76455
52.48529,74.23151
52.54529,64.67239
52.60529,58.53721
52.66529,73.84569
52.72529,55.27531
52.78529,67.72132
52.84529,62.72993
52.90529,66.07344
52.96529,53.05635
53.02529,68.81571
53.08529,60.63477
53.14529,64.44023
53.20529,66.41034
53.26529,67.93684
53.32529,56.55396
53.38529,48.03562
53.44529,67.64047
53.50529,57.05845
53.56529,66.7364
53.62529,59.15591
53.68529,63.16976
53.74529,49.9248
53.80529,60.01647
53.86529,54.30612
53.92529,57.02829
53.98529,54.73415
54.04529,62.49134
54.10529,54.48865
54.16529,60.47162
54.22529,60.94851
54.28529,54.46047
54.34529,52.60413
54.40529,62.60266
54.46529,54.03882
54.52529,50.11918
54.58529,55.52783
54.64529,44.8729
54.70529,52.32833
54.76529,56.13589
54.82529,61.45418
54.88529,54.28535
54.94529,44.81378
55.00529,49.64002
55.06529,50.26936
55.12529,57.80717
55.18529,47.07854
55.24529,53.14457
55.30529,54.51618
55.36529,48.40841
55.42529,48.8275
55.48529,55.88452
55.54529,47.82557
55.60529,51.27227
55.66529,57.82258
55.72529,59.40401
55.78529,40.74726
55.84529,63.02184
55.90529,59.01931
55.96529,58.01584
56.02529,47.58661
56.08529,51.77437
56.14529,50.34986
56.20529,61.57064
56.26529,59.10968
56.32529,54.07163
56.38529,53.60277
56.44529,52.13691
56.50529,56.7284
56.56529,50.10182
56.62529,46.2278
56.68529,51.26368
56.74529,59.51448
56.80529,45.90539
56.86529,58.21977
56.92529,64.06194
56.98529,60.36669
57.04529,61.7696
57.10529,57.13965
57.16529,59.92392
57.22529,55.43396
57.28529,64.13596
57.34529,75.0689
57.40529,65.05027
57.46529,66.19439
57.52529,57.45569
57.58529,66.19045
57.64529,57.29425
57.70529,54.18391
57.76529,66.41171
57.82529,69.91274
57.88529,63.17385
57.94529,66.42028
58.00529,85.62285
58.06529,64.22746
58.12529,78.23496
58.18529,88.74203
58.24529,81.57708
58.30529,95.55277
58.36529,97.57557
58.42529,87.28193
58.48529,111.6983
58.54529,104.211
58.60529,121.032
58.66529,120.164
58.72529,151.377
58.78529,149.844
58.84529,168.863
58.90529,191.8832
58.96529,215.21
59.02529,222.63
59.08529,268.09
59.14529,290.445
59.20529,299.285
59.26529,314.063
59.32529,324.263
59.38529,341.4376
59.44529,326.373
59.50529,314.169
59.56529,309.124
59.62529,309.072
59.68529,319.104
59.74529,310.578
59.80529,332.219
59.86529,350.441
59.92529,384.103
59.98529,401.934
60.04529,440.023
60.10529,464.78
60.16529,518.909
60.22529,531.454
60.28529,541.293
60.34529,525.104
60.40529,510.742
60.46529,467.016
60.52529,438.827
60.58529,344.823
60.64529,291.823
60.70529,279.183
60.76529,221.779
60.82529,206.684
60.88529,178.791
60.94529,155.883
61.00529,145.983
61.06529,124.051
61.12529,121.394
61.18529,100.537
61.24529,101.82
61.30529,93.32737
61.36529,91.95304
61.42529,86.69539
61.48529,92.078
61.54529,88.32865
61.60529,68.90489
61.66529,85.98955
61.72529,70.67235
61.78529,81.17495
61.84529,83.83656
61.90529,79.0739
61.96529,80.78762
62.02529,75.32398
62.08529,86.25181
62.14529,84.53891
62.20529,78.43736
62.26529,84.34581
62.32529,93.44265
62.38529,91.65395
62.44529,101.901
62.50529,106.632
62.56529,110.213
62.62529,118.38
62.68529,125.214
62.74529,128.48
62.80529,151.229
62.86529,145.262
62.92529,157.635
62.98529,154.901
63.04529,156.348
63.10529,150.712
63.16529,137.489
63.22529,129.042
63.28529,115.773
63.34529,94.55291
63.40529,94.31852
63.46529,92.61618
63.52529,88.93483
63.58529,78.05534
63.64529,70.15759
63.70529,66.51969
63.76529,66.45222
63.82529,54.08674
63.88529,57.94474
63.94529,57.24019
64.00529,59.8628
64.06529,57.02473
64.12529,53.40957
64.18529,41.85001
64.24529,49.53888
64.30529,50.66276
64.36529,46.7696
64.42529,51.08729
64.48529,48.23382
64.54529,43.77543
64.60529,40.9949
64.66529,44.62703
64.72529,41.44306
64.78529,43.74916
64.84529,47.02626
64.90529,45.96858
64.96529,42.61643
65.02529,38.33518
65.08529,52.12668
65.14529,45.3925
65.20529,36.47872
65.26529,37.8943
65.32529,41.82625
65.38529,49.91505
65.44529,38.92766
65.50529,36.15455
65.56529,38.6457
65.62529,38.56475
65.68529,37.58438
65.74529,45.04494
65.80529,39.47186
65.86529,34.28679
65.92529,40.9842
65.98529,43.19658
66.04529,42.83614
66.10529,40.97001
66.16529,40.40815
66.22529,31.0914
66.28529,32.20951
66.34529,38.54425
66.40529,39.3313
66.46529,39.04574
66.52529,40.32225
66.58529,39.67182
66.64529,35.01392
66.70529,41.37589
66.76529,25.20818
66.82529,51.2908
66.88529,43.60839
66.94529,39.42482
67.00529,36.26662
67.06529,33.50611
67.12529,33.44369
67.18529,41.32259
67.24529,38.38121
67.30529,38.5224
67.36529,38.3371
67.42529,35.18314
67.48529,35.50681
67.54529,38.37385
67.60529,38.36123
67.66529,30.79385
67.72529,38.75342
67.78529,33.99953
67.84529,38.35556
67.90529,33.27725
67.96529,41.68243
68.02529,39.54892
68.08529,35.6238
68.14529,36.35571
68.20529,37.02161
68.26529,38.6619
68.32529,34.37886
68.38529,39.36818
68.44529,42.93483
68.50529,35.27306
68.56529,33.39908
68.62529,40.6694
68.68529,44.09242
68.74529,48.78313
68.80529,36.99416
68.86529,33.5014
68.92529,38.15987
68.98529,34.55646
69.04529,36.1764
69.10529,39.76606
69.16529,37.65296
69.22529,44.96595
69.28529,36.5302
69.34529,38.06642
69.40529,31.90684
69.46529,38.34044
69.52529,32.18116
69.58529,33.44352
69.64529,32.32172
69.70529,35.21558
69.76529,39.36728
69.82529,36.12536
69.88529,39.47967
69.94529,34.23396
70.00529,35.2856
70.06529,34.60097
70.12529,37.49971
70.18529,32.18852
70.24529,32.32421
70.30529,35.23587
70.36529,38.03971
70.42529,40.1624
70.48529,39.77154
70.54529,35.10103
70.60529,35.18891
70.66529,36.22012
70.72529,35.50382
70.78529,36.0713
70.84529,35.95238
70.90529,30.73269
70.96529,39.11099
71.02529,35.29392
71.08529,34.47529
71.14529,32.7621
71.20529,36.46268
71.26529,37.61513
71.32529,36.75659
71.38529,31.10095
71.44529,32.99442
71.50529,39.22718
71.56529,33.5115
71.62529,38.25283
71.68529,35.09652
71.74529,34.699
71.80529,37.03759
71.86529,43.01209
71.92529,33.77821
71.98529,36.44839
72.04529,39.49832
72.10529,34.61023
72.16529,38.60077
72.22529,48.25738
72.28529,43.13777
72.34529,39.98836
72.40529,39.35013
72.46529,55.11592
72.52529,51.94341
72.58529,55.74902
72.64529,65.16747
72.70529,57.69513
72.76529,69.99674
72.82529,65.3054
72.88529,62.51184
72.94529,72.69083
73.00529,69.00065
73.06529,70.68529
73.12529,66.52006
73.18529,72.83192
73.24529,67.24342
73.30529,57.92931
73.36529,58.74131
73.42529,59.51795
73.48529,50.7578
73.54529,50.52225
73.60529,56.82493
73.66529,55.0168
73.72529,57.55419
73.78529,50.5457
73.84529,59.77871
73.90529,58.74691
73.96529,50.93533
74.02529,60.95889
74.08529,66.94526
74.14529,61.69061
74.20529,57.3948
74.26529,68.44054
74.32529,76.65122
74.38529,79.21525
74.44529,96.04619
74.50529,95.48957
74.56529,115.401
74.62529,118.825
74.68529,112.068
74.74529,143.512
74.80529,119.315
74.86529,118.982
74.92529,107.581
74.98529,105.117
75.04529,96.08329
75.10529,96.29608
75.16529,74.06174
75.22529,61.07895
75.28529,72.97188
75.34529,65.47353
75.40529,47.80032
75.46529,46.69882
75.52529,47.85405
75.58529,54.33983
75.64529,53.00872
75.70529,47.6828
75.76529,45.30148
75.82529,43.23631
75.88529,50.64667
75.94529,41.62494
76.00529,36.6293
76.06529,33.06645
76.12529,55.73384
76.18529,41.31203
76.24529,43.53158
76.30529,41.69049
76.36529,41.02441
76.42529,36.69712
76.48529,32.09537
76.54529,39.3188
76.60529,42.89532
76.66529,35.77076
76.72529,40.2231
76.78529,45.72895
76.84529,38.13159
76.90529,31.48193
76.96529,40.89859
77.02529,34.91661
77.08529,43.65463
77.14529,34.56442
77.20529,44.32296
77.26529,38.28523
77.32529,46.08538
77.38529,42.04822
77.44529,41.02131
77.50529,40.48994
77.56529,36.18545
77.62529,34.69232
77.68529,32.39994
77.74529,38.81661
77.80529,40.77163
77.86529,41.72012
77.92529,38.81861
77.98529,41.44931
78.04529,41.29519
78.10529,44.33464
78.16529,37.75058
78.22529,41.80834
78.28529,45.26029
78.34529,39.06172
78.40529,40.20851
78.46529,50.19221
78.52529,38.25941
78.58529,41.5574
78.64529,42.31908
78.70529,47.29267
78.76529,44.0659
78.82529,42.39026
78.88529,35.79902
78.94529,40.79816
79.00529,42.73004
79.06529,38.18355
79.12529,44.64825
79.18529,36.15351
79.24529,44.37913
79.30529,48.63426
79.36529,47.81002
79.42529,42.61103
79.48529,43.51394
79.54529,46.15595
79.60529,43.11555
79.66529,42.88355
79.72529,48.43907
79.78529,52.61682
79.84529,47.22232
79.90529,42.83406
79.96529,46.78968
80.02529,45.88287
80.08529,47.64394
80.14529,52.07092
80.20529,50.52816
80.26529,52.44174
80.32529,53.89381
80.38529,57.13432
80.44529,51.83036
80.50529,52.59799
80.56529,57.3061
80.62529,64.55081
80.68529,57.99325
80.74529,59.54928
80.80529,73.47835
80.86529,71.09646
80.92529,76.18255
80.98529,85.15935
81.04529,83.09744
81.10529,97.29026
81.16529,95.6371
81.22529,102.794
81.28529,126.729
81.34529,139.5
81.40529,115.977
81.46529,128.409
81.52529,152.698
81.58529,139.204
81.64529,167.031
81.70529,190.244
81.76529,186.733
81.82529,170.364
81.88529,198.262
81.94529,181.605
82.00529,194.75
82.06529,207.502
82.12529,200.6054
82.18529,196.094
82.24529,172.319
82.30529,178.025
82.36529,193.031
82.42529,167.555
82.48529,179.946
82.54529,173.632