File: data/xrd_icdd_PDF/00-064-0248 (PD3).csv
20.0154,97.0006
20.0664,112.1129
20.1174,79.4936
20.1684,100.772
20.2194,89.5441
20.2704,103.3779
20.3214,98.8422
20.3724,90.9347
20.4234,88.6779
20.4744,89.6703
20.5254,105.4392
20.5764,98.2689
20.6274,95.3489
20.6784,80.6571
20.7294,79.2179
20.7804,90.7725
20.8314,103.299
20.8824,82.7285
20.9334,81.8037
20.9844,92.0101
21.0354,98.1884
21.0864,66.1026
21.1374,93.6093
21.1884,90.4187
21.2394,97.0057
21.2904,94.657
21.3414,86.4817
21.3924,85.5906
21.4434,88.4212
21.4944,95.9884
21.5454,94.3406
21.5964,96.2769
21.6474,92.8262
21.6984,88.0857
21.7494,107.5274
21.8004,92.0501
21.8514,89.0051
21.9024,96.9922
21.9534,90.4194
22.0044,114.5642
22.0554,97.0057
22.1064,100.4913
22.1574,91.4105
22.2084,93.4038
22.2594,79.5212
22.3104,81.0022
22.3614,97.7632
22.4124,103.857
22.4634,86.3872
22.5144,89.9875
22.5654,81.6288
22.6164,88.6998
22.6674,95.7009
22.7184,81.0412
22.7694,84.7935
22.8204,81.6364
22.8714,81.9786
22.9224,101.9936
22.9734,80.964
23.0244,81.7031
23.0754,93.2254
23.1264,77.7016
23.1774,74.1318
23.2284,83.2791
23.2794,71.8311
23.3304,96.7329
23.3814,86.952
23.4324,78.5936
23.4834,72.6947
23.5344,73.9216
23.5854,73.4565
23.6364,85.8062
23.6874,58.7696
23.7384,70.5448
23.7894,64.4756
23.8404,71.4415
23.8914,70.1781
23.9424,74.9956
23.9934,69.2238
24.0444,93.5835
24.0954,56.3424
24.1464,64.1717
24.1974,80.2425
24.2484,53.816
24.2994,60.5189
24.3504,63.6561
24.4014,70.6067
24.4524,57.4874
24.5034,73.5656
24.5544,64.2227
24.6054,57.9723
24.6564,75.0135
24.7074,66.9214
24.7584,73.7393
24.8094,67.898
24.8604,59.3001
24.9114,54.3158
24.9624,57.5516
25.0134,52.6401
25.0644,71.6018
25.1154,74.7213
25.1664,77.7638
25.2174,65.2996
25.2684,70.3185
25.3194,47.1747
25.3704,76.2614
25.4214,52.5717
25.4724,64.4577
25.5234,71.3673
25.5744,57.902
25.6254,57.2952
25.6764,72.073
25.7274,58.6339
25.7784,70.0039
25.8294,55.6351
25.8804,57.5067
25.9314,68.9459
25.9824,56.3256
26.0334,58.0431
26.0844,61.6849
26.1354,63.3573
26.1864,54.0904
26.2374,64.8507
26.2884,62.2451
26.3394,70.5599
26.3904,55.5179
26.4414,60.3489
26.4924,65.5792
26.5434,60.196
26.5944,69.9368
26.6454,55.4058
26.6964,63.4781
26.7474,72.685
26.7984,56.1475
26.8494,48.6501
26.9004,63.0168
26.9514,60.2007
27.0024,73.4906
27.0534,83.1102
27.1044,70.5485
27.1554,111.9801
27.2064,199.5606
27.2574,377.8756
27.3084,279.9777
27.3594,160.7955
27.4104,82.8789
27.4614,74.7802
27.5124,67.5342
27.5634,65.9548
27.6144,69.6655
27.6654,65.7713
27.7164,54.9245
27.7674,54.489
27.8184,65.8572
27.8694,53.1809
27.9204,40.1047
27.9714,58.6531
28.0224,55.4876
28.0734,59.2384
28.1244,58.8303
28.1754,57.9968
28.2264,58.6165
28.2774,48.3689
28.3284,50.2023
28.3794,53.4968
28.4304,46.5217
28.4814,49.7944
28.5324,52.7166
28.5834,42.5421
28.6344,47.1201
28.6854,58.1852
28.7364,59.3147
28.7874,46.8448
28.8384,44.7276
28.8894,50.7946
28.9404,40.6441
28.9914,64.4098
29.0424,52.8227
29.0934,55.0032
29.1444,55.2751
29.1954,42.3586
29.2464,54.4763
29.2974,50.9972
29.3484,49.5175
29.3994,44.7583
29.4504,57.3453
29.5014,53.4836
29.5524,45.9244
29.6034,54.4862
29.6544,42.5725
29.7054,52.8513
29.7564,39.8979
29.8074,41.0024
29.8584,43.9762
29.9094,50.5527
29.9604,51.7137
30.0114,54.6083
30.0624,48.9361
30.1134,45.214
30.1644,61.6465
30.2154,35.7352
30.2664,47.487
30.3174,43.3002
30.3684,40.2549
30.4194,59.1513
30.4704,43.2491
30.5214,40.5213
30.5724,44.3159
30.6234,40.1855
30.6744,40.1693
30.7254,33.4943
30.7764,52.9398
30.8274,51.8831
30.8784,41.0785
30.9294,46.6487
30.9804,39.8537
31.0314,51.6676
31.0824,57.8012
31.1334,37.703
31.1844,55.3547
31.2354,45.4168
31.2864,48.9188
31.3374,50.0525
31.3884,58.886
31.4394,85.9859
31.4904,98.891
31.5414,165.8659
31.5924,214.9469
31.6434,157.8307
31.6944,113.082
31.7454,63.8669
31.7964,79.8096
31.8474,44.1741
31.8984,50.7717
31.9494,48.4817
32.0004,44.2681
32.0514,39.6952
32.1024,41.0072
32.1534,39.0506
32.2044,36.6779
32.2554,40.7156
32.3064,38.4896
32.3574,42.3668
32.4084,36.3418
32.4594,40.6425
32.5104,33.5999
32.5614,37.2589
32.6124,35.6034
32.6634,35.2889
32.7144,30.653
32.7654,50.0505
32.8164,37.9863
32.8674,36.7507
32.9184,39.1116
32.9694,42.3644
33.0204,46.7358
33.0714,36.0748
33.1224,30.8514
33.1734,38.3796
33.2244,36.3953
33.2754,32.8029
33.3264,34.1851
33.3774,33.7385
33.4284,33.9981
33.4794,42.0495
33.5304,38.6501
33.5814,44.3601
33.6324,29.6044
33.6834,44.8018
33.7344,45.2095
33.7854,32.0547
33.8364,40.8111
33.8874,36.5052
33.9384,43.2025
33.9894,38.5618
34.0404,36.998
34.0914,37.5506
34.1424,36.86
34.1934,39.3599
34.2444,43.9223
34.2954,43.7766
34.3464,36.1279
34.3974,33.8487
34.4484,30.6483
34.4994,40.8456
34.5504,33.6812
34.6014,25.647
34.6524,30.9893
34.7034,38.3569
34.7544,24.019
34.8054,38.8719
34.8564,28.6649
34.9074,34.4117
34.9584,40.6151
35.0094,33.4759
35.0604,23.3247
35.1114,33.9782
35.1624,34.2379
35.2134,39.3524
35.2644,36.4886
35.3154,36.7469
35.3664,40.2012
35.4174,28.3449
35.4684,22.1826
35.5194,26.9699
35.5704,41.415
35.6214,36.2494
35.6724,38.1813
35.7234,50.6424
35.7744,23.1618
35.8254,34.9981
35.8764,34.4056
35.9274,33.765
35.9784,33.3533
36.0294,22.5499
36.0804,20.0213
36.1314,36.3771
36.1824,26.8606
36.2334,37.1094
36.2844,24.3756
36.3354,31.9982
36.3864,29.5295
36.4374,38.1475
36.4884,22.579
36.5394,29.6167
36.5904,27.3069
36.6414,36.0835
36.6924,20.9106
36.7434,41.9897
36.7944,31.4149
36.8454,41.0629
36.8964,27.3721
36.9474,29.9983
36.9984,22.3008
37.0494,41.8806
37.1004,34.7223
37.1514,30.6713
37.2024,30.2789
37.2534,29.4012
37.3044,34.2835
37.3554,33.2306
37.4064,27.9799
37.4574,19.9113
37.5084,29.7771
37.5594,27.5067
37.6104,27.058
37.6614,39.1295
37.7124,32.9982
37.7634,32.6574
37.8144,37.9297
37.8654,28.857
37.9164,28.7717
37.9674,25.4509
38.0184,27.896
38.0694,35.3469
38.1204,28.2005
38.1714,32.078
38.2224,27.9899
38.2734,29.1107
38.3244,30.958
38.3754,26.3447
38.4264,30.8448
38.4774,36.8156
38.5284,26.0288
38.5794,34.5994
38.6304,16.5661
38.6814,25.0859
38.7324,27.2254
38.7834,34.0805
38.8344,38.9878
38.8854,26.4238
38.9364,30.3879
38.9874,33.6972
39.0384,28.0029
39.0894,32.2995
39.1404,23.0681
39.1914,34.0417
39.2424,29.0475
39.2934,27.6269
39.3444,28.7157
39.3954,24.6951
39.4464,27.7599
39.4974,28.9997
39.5484,26.4792
39.5994,18.4798
39.6504,40.4665
39.7014,38.8926
39.7524,36.1746
39.8034,23.1096
39.8544,24.8577
39.9054,30.2793
39.9564,29.4636
40.0074,28.5907
40.0584,23.8505
40.1094,28.4271
40.1604,25.3161
40.2114,30.8434
40.2624,31.8868
40.3134,29.5988
40.3644,34.6355
40.4154,34.3972
40.4664,35.3608
40.5174,25.7737
40.5684,28.219
40.6194,34.2359
40.6704,47.9384
40.7214,44.0519
40.7724,36.6552
40.8234,31.9635
40.8744,31.1966
40.9254,38.741
40.9764,25.638
41.0274,36.3807
41.0784,36.0412
41.1294,25.2099
41.1804,26.6157
41.2314,24.9357
41.2824,31.5623
41.3334,24.6615
41.3844,26.7165
41.4354,30.1565
41.4864,32.2846
41.5374,22.4026
41.5884,33.1028
41.6394,24.1877
41.6904,27.1791
41.7414,28.4829
41.7924,29.8657
41.8434,25.3734
41.8944,31.5258
41.9454,34.5408
41.9964,24.0788
42.0474,26.7064
42.0984,25.6679
42.1494,31.9801
42.2004,29.1668
42.2514,37.4073
42.3024,28.7437
42.3534,28.7814
42.4044,34.7972
42.4554,36.2878
42.5064,34.5567
42.5574,25.9088
42.6084,40.5116
42.6594,30.033
42.7104,29.1951
42.7614,32.1157
42.8124,40.8218
42.8634,39.6609
42.9144,37.4521
42.9654,41.0742
43.0164,35.266
43.0674,48.8541
43.1184,41.9189
43.1694,73.64
43.2204,80.6781
43.2714,103.7097
43.3224,91.058
43.3734,49.5722
43.4244,40.7116
43.4754,48.9581
43.5264,51.5773
43.5774,55.2104
43.6284,52.9971
43.6794,47.8462
43.7304,29.8397
43.7814,44.7745
43.8324,50.5855
43.8834,51.1307
43.9344,50.8552
43.9854,43.3453
44.0364,45.9975
44.0874,43.5094
44.1384,41.9636
44.1894,42.5664
44.2404,54.5824
44.2914,57.6868
44.3424,52.9395
44.3934,58.6686
44.4444,67.7598
44.4954,76.3951
44.5464,82.4667
44.5974,86.6805
44.6484,95.7482
44.6994,95.2107
44.7504,122.4653
44.8014,122.6119
44.8524,172.2035
44.9034,192.5233
44.9544,316.1715
45.0054,398.9004
45.0564,574.5167
45.1074,798.6733
45.1584,1466.333
45.2094,3301.834
45.2604,4173.775
45.3114,2762.175
45.3624,2695.741
45.4134,1502.293
45.4644,765.0066
45.5154,445.1744
45.5664,328.2041
45.6174,229.5262
45.6684,175.7891
45.7194,159.4557
45.7704,107.292
45.8214,111.5826
45.8724,98.9668
45.9234,73.3175
45.9744,64.7803
46.0254,64.7356
46.0764,52.9823
46.1274,54.2258
46.1784,47.4559
46.2294,47.9974
46.2804,44.7833
46.3314,45.9975
46.3824,51.3781
46.4334,37.5027
46.4844,35.5989
46.5354,44.4346
46.5864,26.0717
46.6374,33.3388
46.6884,28.2
46.7394,28.8001
46.7904,32.937
46.8414,28.9984
46.8924,28.6369
46.9434,31.5274
46.9944,36.7391
47.0454,27.0047
47.0964,26.5681
47.1474,28.5735
47.1984,28.4031
47.2494,26.6472
47.3004,27.1541
47.3514,28.216
47.4024,23.833
47.4534,37.3227
47.5044,18.0544
47.5554,19.0702
47.6064,30.2064
47.6574,26.2567
47.7084,27.8533
47.7594,30.5895
47.8104,28.2474
47.8614,22.8088
47.9124,23.114
47.9634,30.1451
48.0144,26.4608
48.0654,19.079
48.1164,21.879
48.1674,23.7751
48.2184,28.0048
48.2694,19.422
48.3204,23.3951
48.3714,23.1686
48.4224,21.6113
48.4734,18.9217
48.5244,19.3539
48.5754,32.5753
48.6264,26.2997
48.6774,26.6985
48.7284,29.726
48.7794,19.6355
48.8304,32.1492
48.8814,16.6738
48.9324,24.663
48.9834,24.799
49.0344,27.434
49.0854,20.5515
49.1364,20.3854
49.1874,19.5969
49.2384,22.5983
49.2894,17.9906
49.3404,12.8033
49.3914,21.4215
49.4424,18.1839
49.4934,20.9178
49.5444,24.0099
49.5954,32.9323
49.6464,24.1135
49.6974,26.9981
49.7484,12.4042
49.7994,13.166
49.8504,20.6433
49.9014,19.1212
49.9524,20.9116
50.0034,20.6999
50.0544,20.8215
50.1054,20.7432
50.1564,17.3352
50.2074,15.2039
50.2584,17.999
50.3094,18.9054
50.3604,16.6371
50.4114,15.7839
50.4624,20.8874
50.5134,21.9998
50.5644,18.0991
50.6154,20.2016
50.6664,22.6956
50.7174,19.592
50.7684,25.1717
50.8194,18.306
50.8704,15.9473
50.9214,16.5385
50.9724,16.774
51.0234,19.0277
51.0744,19.0956
51.1254,19.3853
51.1764,20.6687
51.2274,28.2683
51.2784,29.3808
51.3294,17.1737
51.3804,16.7357
51.4314,17.0699
51.4824,22.0614
51.5334,11.166
51.5844,11.8442
51.6354,17.5446
51.6864,23.6807
51.7374,15.5192
51.7884,17.4583
51.8394,20.3739
51.8904,22.2349
51.9414,17.3151
51.9924,21.9863
52.0434,16.2036
52.0944,22.9608
52.1454,23.6534
52.1964,22.8251
52.2474,17.9366
52.2984,12.9993
52.3494,19.1369
52.4004,18.8269
52.4514,19.9691
52.5024,22.9334
52.5534,18.9296
52.6044,20.7261
52.6554,17.0029
52.7064,16.0221
52.7574,22.6154
52.8084,17.3134
52.8594,27.0047
52.9104,21.2953
52.9614,20.8393
53.0124,9.6073
53.0634,20.1789
53.1144,17.6385
53.1654,19.5419
53.2164,26.7752
53.2674,28.5633
53.3184,20.6113
53.3694,25.2779
53.4204,22.5984
53.4714,37.0286
53.5224,44.7555
53.5734,84.6316
53.6244,117.915
53.6754,94.4315
53.7264,82.1503
53.7774,74.0412
53.8284,42.103
53.8794,26.4155
53.9304,24.4675
53.9814,22.9987
54.0324,22.7216
54.0834,17.2477
54.1344,19.6464
54.1854,28.1965
54.2364,23.6593
54.2874,19.5038
54.3384,13.9304
54.3894,21.1978
54.4404,20.9347
54.4914,12.9214
54.5424,18.9081
54.5934,20.5754
54.6444,22.9987
54.6954,18.7526
54.7464,19.7007
54.7974,20.4539
54.8484,19.8025
54.8994,21.8136
54.9504,12.5385
55.0014,17.6708
55.0524,11.8618
55.1034,18.3379
55.1544,8.8631
55.2054,10.9409
55.2564,19.1824
55.3074,9.8414
55.3584,19.9236
55.4094,16.0271
55.4604,11.2373
55.5114,12.1507
55.5624,16.0028
55.6134,16.8954
55.6644,16.6121
55.7154,14.5467
55.7664,20.999
55.8174,17.3857
55.8684,20.6833
55.9194,17.5852
55.9704,22.3725
56.0214,22.7507
56.0724,20.6448
56.1234,23.7947
56.1744,48.2414
56.2254,54.1957
56.2764,28.7593
56.3274,41.3914
56.3784,38.9979
56.4294,22.9643
56.4804,20.9383
56.5314,19.5538
56.5824,17.6708
56.6334,18.783
56.6844,22.1236
56.7354,13.322
56.7864,17.0274
56.8374,16.9991
56.8884,15.7264
56.9394,22.1065
56.9904,12.5264
57.0414,15.1528
57.0924,18.7331
57.1434,22.6702
57.1944,20.1437
57.2454,17.1324
57.2964,25.3431
57.3474,18.6489
57.3984,13.0637
57.4494,17.4978
57.5004,11.2936
57.5514,13.7438
57.6024,16.1999
57.6534,16.2301
57.7044,16.1346
57.7554,17.1488
57.8064,13.6729
57.8574,16.6026
57.9084,17.6048
57.9594,11.4357
58.0104,12.6149
58.0614,16.3412
58.1124,13.9654
58.1634,13.6862
58.2144,17.3532
58.2654,11.8797
58.3164,17.2196
58.3674,21.9556
58.4184,17.999
58.4694,19.7573
58.5204,15.3304
58.5714,19.7415
58.6224,9.4247
58.6734,19.4246
58.7244,13.6115
58.7754,20.0338
58.8264,14.1161
58.8774,15.5094
58.9284,19.5474
58.9794,15.8003
59.0304,15.3069
59.0814,16.5912
59.1324,12.2669
59.1834,15.6533
59.2344,13.5775
59.2854,16.1765
59.3364,12.1465
59.3874,11.1194
59.4384,16.6016
59.4894,20.1175
59.5404,13.7039
59.5914,11.7783
59.6424,10.0986
59.6934,15.6954
59.7444,17.9763
59.7954,16.7289
59.8464,21.629
59.8974,14.1324
59.9484,17.2659
59.9994,13.0023
60.0504,13.688
60.1014,14.5179
60.1524,9.2069
60.2034,19.0644
60.2544,22.4795
60.3054,13.2071
60.3564,9.0027
60.4074,21.4348
60.4584,15.7923
60.5094,19.6883
60.5604,12.8641
60.6114,14.8112
60.6624,19.7559
60.7134,10.0874
60.7644,18.8322
60.8154,13.533
60.8664,19.0715
60.9174,18.8491
60.9684,10.7583
61.0194,23.0195
61.0704,16.7441
61.1214,19.0033
61.1724,14.3411
61.2234,10.8326
61.2744,10.2008
61.3254,13.1105
61.3764,23.6386
61.4274,11.7934
61.4784,12.1395
61.5294,16.039
61.5804,18.0495
61.6314,14.886
61.6824,13.7367
61.7334,18.9998
61.7844,20.3904
61.8354,18.5315
61.8864,16.4505
61.9374,17.1831
61.9884,15.0486
62.0394,23.4194
62.0904,20.145
62.1414,9.8605
62.1924,19.7305
62.2434,16.8221
62.2944,19.279
62.3454,13.1305
62.3964,16.7296
62.4474,16.3743
62.4984,18.4684
62.5494,17.8272
62.6004,17.5599
62.6514,13.6578
62.7024,25.0774
62.7534,26.8703
62.8044,25.3887
62.8554,28.9031
62.9064,19.8633
62.9574,20.8528
63.0084,21.694
63.0594,18.2563
63.1104,14.6158
63.1614,21.0445
63.2124,17.5839
63.2634,20.8204
63.3144,19.0219
63.3654,17.2306
63.4164,23.6694
63.4674,17.3564
63.5184,21.3588
63.5694,17.7338
63.6204,17.999
63.6714,16.158
63.7224,18.6332
63.7734,14.9444
63.8244,12.8032
63.8754,20.5798
63.9264,16.1395
63.9774,15.8393
64.0284,18.857
64.0794,21.5709
64.1304,20.51
64.1814,22.1064
64.2324,21.1155
64.2834,18.048
64.3344,18.0031
64.3854,14.8454
64.4364,19.9702
64.4874,18.5983
64.5384,18.253
64.5894,19.7015
64.6404,19.4185
64.6914,17.4655
64.7424,20.5128
64.7934,21.0125
64.8444,28.625
64.8954,23.7147
64.9464,26.358
64.9974,21.1217
65.0484,35.7746
65.0994,39.1084
65.1504,38.012
65.2014,32.9147
65.2524,31.7267
65.3034,28.5046
65.3544,36.5442
65.4054,47.7242
65.4564,59.8
65.5074,64.3672
65.5584,54.737
65.6094,80.5801
65.6604,119.7251
65.7114,148.7769
65.7624,226.2991
65.8134,342.3906
65.8644,448.2608
65.9154,455.3983
65.9664,410.6684
66.0174,364.6219
66.0684,349.4502
66.1194,268.9334
66.1704,162.5167
66.2214,117.0646
66.2724,88.1537
66.3234,84.8479
66.3744,64.0255
66.4254,59.4723
66.4764,45.6669
66.5274,33.5489
66.5784,35.3592
66.6294,35.7514
66.6804,27.0047
66.7314,28.3441
66.7824,19.9328
66.8334,26.1694
66.8844,31.1024
66.9354,25.3768
66.9864,22.1943
67.0374,22.8941
67.0884,27.0431
67.1394,23.4185
67.1904,29.3391
67.2414,16.0203
67.2924,21.8472
67.3434,21.893
67.3944,21.452
67.4454,16.7984
67.4964,23.6453
67.5474,17.5445
67.5984,18.8846
67.6494,15.1232
67.7004,23.4126
67.7514,13.6679
67.8024,14.7043
67.8534,18.8607
67.9044,27.0047
67.9554,12.3875
68.0064,15.2545
68.0574,18.648
68.1084,17.5092
68.1594,11.8621
68.2104,12.0383
68.2614,16.8268
68.3124,14.3384
68.3634,16.9952
68.4144,16.1921
68.4654,17.0731
68.5164,14.7612
68.5674,19.4534
68.6184,20.8043
68.6694,13.8564
68.7204,7.4983
68.7714,19.3471
68.8224,15.2106
68.8734,17.9059
68.9244,18.2954
68.9754,13.4445
69.0264,17.8064
69.0774,14.2258
69.1284,13.4062
69.1794,13.9359
69.2304,20.957
69.2814,12.7007
69.3324,23.1371
69.3834,13.1765
69.4344,22.2912
69.4854,14.5584
69.5364,12.6409
69.5874,12.852
69.6384,11.2634
69.6894,10.5118
69.7404,19.9296
69.7914,12.3574
69.8424,14.206
69.8934,14.9248
69.9444,13.769
69.9954,15.3844
70.0464,19.0837
70.0974,16.0028
70.1484,21.4709
70.1994,12.9896
70.2504,12.2728
70.3014,15.6741
70.3524,14.7976
70.4034,14.0024
70.4544,12.4182
70.5054,16.1494
70.5564,12.7289
70.6074,22.2482
70.6584,15.1154
70.7094,18.4814
70.7604,17.724
70.8114,11.253
70.8624,12.7119
70.9134,21.1916
70.9644,17.6517
71.0154,17.1601
71.0664,17.5411
71.1174,19.1765
71.1684,16.9209
71.2194,22.713
71.2704,16.1794
71.3214,20.8529
71.3724,17.6116
71.4234,17.5078
71.4744,9.1945
71.5254,20.0476
71.5764,15.2197
71.6274,11.8203
71.6784,14.9894
71.7294,14.6517
71.7804,10.0535
71.8314,11.704
71.8824,15.8582
71.9334,17.1656
71.9844,18.9016
72.0354,13.6557
72.0864,13.475
72.1374,17.9762
72.1884,21.8444
72.2394,17.9949
72.2904,16.0028
72.3414,13.1828
72.3924,13.305
72.4434,10.1391
72.4944,15.9877
72.5454,20.2186
72.5964,31.3884
72.6474,31.954
72.6984,37.1167
72.7494,37.8402
72.8004,25.7103
72.8514,35.7852
72.9024,24.4975
72.9534,24.7956
73.0044,18.8991
73.0554,20.8157
73.1064,12.591
73.1574,13.0547
73.2084,20.5627
73.2594,14.797
73.3104,15.1603
73.3614,17.0029
73.4124,18.0031
73.4634,18.6362
73.5144,17.1319
73.5654,14.3924
73.6164,12.3359
73.6674,16.9467
73.7184,15.6826
73.7694,20.163
73.8204,13.2107
73.8714,11.9966
73.9224,23.1433
73.9734,18.6812
74.0244,21.8947
74.0754,20.603
74.1264,18.9766
74.1774,7.6483
74.2284,11.9853
74.2794,18.7028
74.3304,19.8013
74.3814,15.7328
74.4324,16.6897
74.4834,17.1354
74.5344,21.3096
74.5854,24.5432
74.6364,10.4889
74.6874,19.744
74.7384,21.7703
74.7894,25.3243
74.8404,29.2713
74.8914,47.571
74.9424,38.3538
74.9934,40.7585
75.0444,24.8595
75.0954,22.2089
75.1464,29.71
75.1974,28.3397
75.2484,18.2733
75.2994,19.6295
75.3504,22.2427
75.4014,20.8326
75.4524,25.3082
75.5034,19.5133
75.5544,12.5695
75.6054,16.0028
75.6564,15.102
75.7074,16.628
75.7584,15.4225
75.8094,14.1751
75.8604,12.5107
75.9114,17.0029
75.9624,14.397
76.0134,18.7406
76.0644,14.0738
76.1154,18.9785
76.1664,7.7492
76.2174,18.4038
76.2684,20.9731
76.3194,18.6613
76.3704,12.6204
76.4214,17.0698
76.4724,14.8909
76.5234,21.1574
76.5744,16.1418
76.6254,20.7965
76.6764,16.8981
76.7274,16.3572
76.7784,13.926
76.8294,14.8991
76.8804,9.8603
76.9314,14.0848
76.9824,16.6947
77.0334,16.257
77.0844,19.0033
77.1354,19.0033
77.1864,13.84
77.2374,18.0636
77.2884,12.7937
77.3394,13.7762
77.3904,19.6825
77.4414,15.5402
77.4924,15.665
77.5434,14.6652
77.5944,20.0809
77.6454,12.0021
77.6964,20.7482
77.7474,13.671
77.7984,20.1746
77.8494,20.3385
77.9004,9.2088
77.9514,14.592
78.0024,16.2008
78.0534,19.8954
78.1044,20.0411
78.1554,26.1092
78.2064,10.9919
78.2574,16.6832
78.3084,17.7707
78.3594,15.7761
78.4104,21.4807
78.4614,16.0048
78.5124,16.4551
78.5634,13.4564
78.6144,18.4517
78.6654,20.9941
78.7164,10.9969
78.7674,15.1305
78.8184,13.0023
78.8694,20.8186
78.9204,20.806
78.9714,11.8139
79.0224,19.9357
79.0734,20.8912
79.1244,22.9296
79.1754,18.3719
79.2264,24.1823
79.2774,25.8301
79.3284,24.964
79.3794,30.6588
79.4304,20.6264
79.4814,21.5666
79.5324,26.5596
79.5834,16.871
79.6344,16.5879
79.6854,17.417
79.7364,13.5141
79.7874,23.2399
79.8384,25.404
79.8894,14.6332
79.9404,17.1592
79.9914,21.8159
80.0424,17.0541
80.0934,12.2981
80.1444,21.4483
80.1954,20.9815
80.2464,26.7779
80.2974,13.6602
80.3484,19.8112
80.3994,19.3027
80.4504,16.7834
80.5014,13.7931
80.5524,20.4264
80.6034,16.0374
80.6544,17.0725
80.7054,18.4884
80.7564,15.6745
80.8074,29.2062
80.8584,19.84
80.9094,19.8919
80.9604,17.5774
81.0114,20.0176
81.0624,15.9147
81.1134,15.2353
81.1644,19.2989
81.2154,21.5952
81.2664,19.2458
81.3174,27.7018
81.3684,24.3591
81.4194,17.7827
81.4704,18.2965
81.5214,24.941
81.5724,21.3674
81.6234,23.6782
81.6744,18.3305
81.7254,26.2869
81.7764,22.3906
81.8274,24.2899
81.8784,20.3836
81.9294,15.9955
81.9804,26.6027
82.0314,20.0612
82.0824,13.052
82.1334,24.341
82.1844,19.9943
82.2354,20.8268
82.2864,23.0189
82.3374,28.024
82.3884,26.3542
82.4394,29.4486
82.4904,28.0048
82.5414,26.6337
82.5924,28.7888
82.6434,34.1974
82.6944,30.3854
82.7454,42.7618
82.7964,48.2334
82.8474,43.582
82.8984,49.8157
82.9494,49.1766
83.0004,55.9275
83.0514,73.8161
83.1024,61.7124
83.1534,88.4957
83.2044,105.2031
83.2554,122.2012
83.3064,160.6855
83.3574,212.4132
83.4084,293.324
83.4594,509.7376
83.5104,807.8326
83.5614,764.7496
83.6124,563.519
83.6634,437.952
83.7144,408.5029
83.7654,452.435
83.8164,482.3562
83.8674,312.9591
83.9184,214.4434
83.9694,167.9469
84.0204,129.9135
84.0714,81.1393
84.1224,91.3602
84.1734,61.394
84.2244,56.4648
84.2754,56.2253
84.3264,38.6194
84.3774,42.5284
84.4284,42.588
84.4794,36.9561
84.5304,34.8333
84.5814,37.9535
84.6324,24.0042
84.6834,35.9705
84.7344,33.8854
84.7854,32.6281
84.8364,33.0277
84.8874,25.1298
84.9384,23.01
84.9894,33.7592
85.0404,28.8646
85.0914,21.1623
85.1424,22.0884
85.1934,18.6689
85.2444,23.4752
85.2954,24.0042
85.3464,20.2176
85.3974,19.0033
85.4484,18.4994
85.4994,14.5304
85.5504,21.0291
85.6014,18.0613
85.6524,17.5093
85.7034,17.3282
85.7544,18.0663
85.8054,12.5386
85.8564,21.7429
85.9074,25.8658
85.9584,16.9427
86.0094,26.5633
86.0604,15.1067
86.1114,13.0484
86.1624,20.3665
86.2134,21.6552
86.2644,21.018
86.3154,19.0659
86.3664,20.9607
86.4174,17.8586
86.4684,14.9192
86.5194,14.1318
86.5704,12.2857
86.6214,21.8417
86.6724,16.7485
86.7234,18.3829
86.7744,9.4088
86.8254,17.4022
86.8764,17.1358
86.9274,22.9501
86.9784,21.543
87.0294,18.9946
87.0804,22.2751
87.1314,20.5796
87.1824,23.3234
87.2334,20.3193
87.2844,14.1054
87.3354,16.3247
87.3864,16.1683
87.4374,15.6572
87.4884,13.1518
87.5394,15.1358
87.5904,17.36
87.6414,22.0038
87.6924,18.6564
87.7434,17.9903
87.7944,16.3373
87.8454,13.3687
87.8964,19.0776
87.9474,21.1999
87.9984,16.2507
88.0494,13.8661
88.1004,21.2005
88.1514,12.9868
88.2024,14.8984
88.2534,18.5358
88.3044,16.0028
88.3554,18.5548
88.4064,17.9791
88.4574,16.4795
88.5084,15.4485
88.5594,11.7052
88.6104,20.1492
88.6614,13.7695
88.7124,23.9068
88.7634,15.6081
88.8144,19.9171
88.8654,19.9261
88.9164,24.8889
88.9674,13.0742
89.0184,8.6467
89.0694,15.2742
89.1204,18.2367
89.1714,22.0058
89.2224,16.6297
89.2734,13.3851
89.3244,15.9955
89.3754,13.5469
89.4264,14.1028
89.4774,19.9849
89.5284,21.0591
89.5794,17.4032
89.6304,13.7465
89.6814,17.6213
89.7324,22.7049
89.7834,33.2843
89.8344,22.8401
89.8854,38.9132
89.9364,19.3709
89.9874,24.4198
90.0384,26.8382
90.0894,18.7502
90.1404,26.5451
90.1914,19.2919
90.2424,16.9952
90.2934,22.3989
90.3444,23.9932
90.3954,16.5321
90.4464,14.9347
90.4974,22.334
90.5484,16.4273
90.5994,14.9497
90.6504,12.9392
90.7014,14.7934
90.7524,13.8944
90.8034,18.4981
90.8544,18.9779
90.9054,13.0439
90.9224,14.5224