File: data/xrd_icdd_PDF/00-058-0377 (PD3).csv
5,246
5.08,270
5.16,256
5.24,274
5.32,246
5.4,262
5.48,236
5.56,232
5.64,230
5.72,228
5.8,218
5.88,204
5.96,232
6.04,222
6.12,221
6.2,222
6.28,200
6.36,204
6.44,192
6.52,210
6.6,197
6.68,218
6.76,190
6.84,170
6.92,168
7,210
7.08,192
7.16,170
7.24,192
7.32,151
7.4,156
7.48,165
7.56,170
7.64,168
7.72,178
7.8,162
7.88,198
7.96,169
8.04,162
8.12,174
8.2,174
8.28,156
8.36,148
8.44,161
8.52,159
8.6,163
8.68,184
8.76,164
8.84,148
8.92,137
9,142
9.08,134
9.16,140
9.24,150
9.32,136
9.4,106
9.48,136
9.56,126
9.64,139
9.72,136
9.8,134
9.88,151
9.96,144
10.04,138
10.12,136
10.2,130
10.28,126
10.36,130
10.44,154
10.52,186
10.6,323
10.68,542
10.76,424
10.84,180
10.92,140
11,135
11.08,130
11.16,117
11.24,128
11.32,117
11.4,112
11.48,102
11.56,118
11.64,119
11.72,130
11.8,104
11.88,115
11.96,106
12.04,114
12.12,96
12.2,116
12.28,122
12.36,108
12.44,109
12.52,112
12.6,125
12.68,126
12.76,114
12.84,116
12.92,104
13,116
13.08,112
13.16,112
13.24,104
13.32,92
13.4,90
13.48,116
13.56,112
13.64,84
13.72,104
13.8,102
13.88,104
13.96,105
14.04,103
14.12,99
14.2,107
14.28,102
14.36,118
14.44,104
14.52,102
14.6,112
14.68,100
14.76,114
14.84,110
14.92,96
15,85
15.08,120
15.16,106
15.24,113
15.32,102
15.4,96
15.48,100
15.56,104
15.64,126
15.72,138
15.8,130
15.88,122
15.96,144
16.04,137
16.12,131
16.2,126
16.28,125
16.36,121
16.44,120
16.52,106
16.6,113
16.68,98
16.76,94
16.84,100
16.92,106
17,90
17.08,110
17.16,106
17.24,106
17.32,100
17.4,80
17.48,100
17.56,92
17.64,82
17.72,86
17.8,80
17.88,84
17.96,86
18.04,88
18.12,75
18.2,98
18.28,98
18.36,88
18.44,79
18.52,108
18.6,90
18.68,70
18.76,91
18.84,80
18.92,87
19,74
19.08,89
19.16,81
19.24,90
19.32,75
19.4,94
19.48,90
19.56,85
19.64,92
19.72,75
19.8,86
19.88,88
19.96,78
20.04,82
20.12,86
20.2,82
20.28,84
20.36,88
20.44,72
20.52,94
20.6,92
20.68,82
20.76,100
20.84,106
20.92,126
21,110
21.08,146
21.16,150
21.24,256
21.32,583
21.4,1570
21.48,2650
21.56,1972
21.64,596
21.72,220
21.8,122
21.88,110
21.96,94
22.04,87
22.12,96
22.2,80
22.28,94
22.36,101
22.44,85
22.52,74
22.6,93
22.68,85
22.76,96
22.84,90
22.92,94
23,82
23.08,102
23.16,86
23.24,84
23.32,96
23.4,62
23.48,80
23.56,105
23.64,98
23.72,82
23.8,80
23.88,96
23.96,82
24.04,74
24.12,88
24.2,92
24.28,68
24.36,70
24.44,88
24.52,84
24.6,90
24.68,82
24.76,82
24.84,69
24.92,82
25,111
25.08,101
25.16,94
25.24,82
25.32,82
25.4,98
25.48,101
25.56,85
25.64,84
25.72,78
25.8,80
25.88,108
25.96,104
26.04,106
26.12,116
26.2,118
26.28,138
26.36,152
26.44,170
26.52,134
26.6,118
26.68,100
26.76,120
26.84,107
26.92,100
27,101
27.08,88
27.16,95
27.24,102
27.32,105
27.4,111
27.48,102
27.56,127
27.64,111
27.72,106
27.8,108
27.88,120
27.96,92
28.04,100
28.12,110
28.2,134
28.28,114
28.36,114
28.44,126
28.52,144
28.6,142
28.68,143
28.76,150
28.84,146
28.92,162
29,182
29.08,189
29.16,214
29.24,307
29.32,421
29.4,572
29.48,702
29.56,776
29.64,591
29.72,384
29.8,249
29.88,206
29.96,176
30.04,148
30.12,142
30.2,149
30.28,144
30.36,144
30.44,148
30.52,150
30.6,142
30.68,148
30.76,150
30.84,206
30.92,258
31,254
31.08,339
31.16,438
31.24,632
31.32,964
31.4,1436
31.48,1794
31.56,1567
31.64,1016
31.72,658
31.8,466
31.88,410
31.96,478
32.04,605
32.12,847
32.2,1674
32.28,3322
32.36,7810
32.44,14336
32.52,14701
32.6,7647
32.68,2376
32.76,736
32.84,400
32.92,303
33,254
33.08,232
33.16,217
33.24,210
33.32,224
33.4,236
33.48,210
33.56,200
33.64,209
33.72,237
33.8,292
33.88,339
33.96,401
34.04,569
34.12,812
34.2,1190
34.28,1348
34.36,1123
34.44,722
34.52,461
34.6,287
34.68,264
34.76,232
34.84,214
34.92,221
35,184
35.08,174
35.16,167
35.24,162
35.32,142
35.4,158
35.48,154
35.56,152
35.64,137
35.72,148
35.8,138
35.88,172
35.96,180
36.04,230
36.12,234
36.2,250
36.28,342
36.36,468
36.44,624
36.52,840
36.6,1156
36.68,1620
36.76,2290
36.84,2287
36.92,1778
37,1030
37.08,614
37.16,384
37.24,238
37.32,216
37.4,173
37.48,148
37.56,142
37.64,126
37.72,132
37.8,112
37.88,129
37.96,131
38.04,110
38.12,120
38.2,100
38.28,115
38.36,126
38.44,125
38.52,126
38.6,126
38.68,116
38.76,126
38.84,130
38.92,96
39,94
39.08,110
39.16,94
39.24,116
39.32,106
39.4,97
39.48,104
39.56,118
39.64,102
39.72,104
39.8,93
39.88,101
39.96,106
40.04,110
40.12,104
40.2,98
40.28,94
40.36,124
40.44,98
40.52,114
40.6,118
40.68,116
40.76,116
40.84,106
40.92,122
41,133
41.08,102
41.16,141
41.24,127
41.32,134
41.4,161
41.48,166
41.56,186
41.64,212
41.72,218
41.8,308
41.88,337
41.96,397
42.04,534
42.12,654
42.2,697
42.28,754
42.36,680
42.44,499
42.52,385
42.6,278
42.68,226
42.76,190
42.84,167
42.92,163
43,154
43.08,168
43.16,162
43.24,192
43.32,216
43.4,245
43.48,320
43.56,558
43.64,905
43.72,1346
43.8,1578
43.88,1250
43.96,702
44.04,336
44.12,210
44.2,180
44.28,188
44.36,210
44.44,216
44.52,195
44.6,172
44.68,130
44.76,102
44.84,106
44.92,84
45,98
45.08,90
45.16,84
45.24,83
45.32,88
45.4,79
45.48,74
45.56,79
45.64,93
45.72,88
45.8,80
45.88,78
45.96,94
46.04,102
46.12,100
46.2,106
46.28,98
46.36,100
46.44,86
46.52,91
46.6,70
46.68,92
46.76,80
46.84,72
46.92,89
47,82
47.08,79
47.16,88
47.24,86
47.32,94
47.4,100
47.48,102
47.56,114
47.64,109
47.72,126
47.8,122
47.88,154
47.96,139
48.04,118
48.12,99
48.2,106
48.28,119
48.36,106
48.44,122
48.52,113
48.6,87
48.68,93
48.76,90
48.84,82
48.92,82
49,72
49.08,78
49.16,98
49.24,78
49.32,86
49.4,86
49.48,73
49.56,85
49.64,84
49.72,96
49.8,81
49.88,80
49.96,78
50.04,74
50.12,84
50.2,103
50.28,102
50.36,121
50.44,132
50.52,142
50.6,124
50.68,118
50.76,112
50.84,92
50.92,102
51,98
51.08,94
51.16,93
51.24,90
51.32,74
51.4,115
51.48,102
51.56,106
51.64,95
51.72,88
51.8,91
51.88,110
51.96,100
52.04,94
52.12,102
52.2,96
52.28,86
52.36,90
52.44,120
52.52,112
52.6,98
52.68,108
52.76,100
52.84,115
52.92,138
53,127
53.08,140
53.16,156
53.24,144
53.32,158
53.4,187
53.48,246
53.56,272
53.64,336
53.72,390
53.8,419
53.88,400
53.96,500
54.04,562
54.12,788
54.2,1001
54.28,1176
54.36,1172
54.44,888
54.52,678
54.6,466
54.68,350
54.76,286
54.84,255
54.92,236
55,236
55.08,248
55.16,268
55.24,276
55.32,385
55.4,444
55.48,502
55.56,518
55.64,440
55.72,333
55.8,258
55.88,184
55.96,170
56.04,141
56.12,165
56.2,142
56.28,124
56.36,124
56.44,122
56.52,120
56.6,118
56.68,128
56.76,122
56.84,118
56.92,112
57,104
57.08,93
57.16,118
57.24,114
57.32,112
57.4,114
57.48,114
57.56,125
57.64,112
57.72,113
57.8,102
57.88,110
57.96,100
58.04,115
58.12,112
58.2,120
58.28,116
58.36,96
58.44,122
58.52,96
58.6,127
58.68,110
58.76,128
58.84,118
58.92,123
59,105
59.08,108
59.16,125
59.24,132
59.32,126
59.4,126
59.48,112
59.56,118
59.64,128
59.72,116
59.8,112
59.88,104
59.96,106
60.04,124
60.12,122
60.2,114
60.28,119
60.36,128
60.44,146
60.52,136
60.6,132
60.68,171
60.76,190
60.84,166
60.92,205
61,250
61.08,270
61.16,286
61.24,250
61.32,270
61.4,272
61.48,248
61.56,220
61.64,170
61.72,167
61.8,150
61.88,148
61.96,190
62.04,200
62.12,239
62.2,205
62.28,236
62.36,272
62.44,264
62.52,234
62.6,214
62.68,196
62.76,156
62.84,166
62.92,117
63,123
63.08,101
63.16,120
63.24,134
63.32,128
63.4,124
63.48,120
63.56,142
63.64,138
63.72,142
63.8,165
63.88,196
63.96,240
64.04,272
64.12,323
64.2,326
64.28,266
64.36,262
64.44,240
64.52,194
64.6,156
64.68,146
64.76,151
64.84,142
64.92,164
65,171
65.08,164
65.16,176
65.24,218
65.32,256
65.4,304
65.48,396
65.56,452
65.64,680
65.72,862
65.8,990
65.88,976
65.96,825
66.04,582
66.12,462
66.2,314
66.28,214
66.36,190
66.44,164
66.52,148
66.6,138
66.68,134
66.76,125
66.84,130
66.92,107
67,110
67.08,118
67.16,99
67.24,128
67.32,99
67.4,112
67.48,120
67.56,116
67.64,134
67.72,142
67.8,170
67.88,226
67.96,266
68.04,260
68.12,237
68.2,173
68.28,151
68.36,132
68.44,114
68.52,135
68.6,112
68.68,112
68.76,119
68.84,108
68.92,118
69,118
69.08,142
69.16,131
69.24,138
69.32,182
69.4,175
69.48,140
69.56,146
69.64,156
69.72,143
69.8,162
69.88,153
69.96,152
70.04,166
70.12,186
70.2,190
70.28,209
70.36,241
70.44,237
70.52,260
70.6,254
70.68,318
70.76,309
70.84,327
70.92,340
71,389
71.08,389
71.16,370
71.24,348
71.32,324
71.4,249
71.48,227
71.56,176
71.64,190
71.72,181
71.8,178
71.88,160
71.96,178
72.04,177
72.12,170
72.2,163
72.28,194
72.36,146
72.44,138
72.52,153
72.6,140
72.68,142
72.76,156
72.84,156
72.92,142
73,163
73.08,141
73.16,179
73.24,171
73.32,210
73.4,222
73.48,256
73.56,264
73.64,276
73.72,277
73.8,265
73.88,254
73.96,228
74.04,190
74.12,146
74.2,156
74.28,130
74.36,140
74.44,130
74.52,114
74.6,136
74.68,118
74.76,101
74.84,100
74.92,108
75,95
75.08,114
75.16,115
75.24,114
75.32,136
75.4,123
75.48,133
75.56,147
75.64,191
75.72,198
75.8,238
75.88,250
75.96,210
76.04,190
76.12,166
76.2,157
76.28,139
76.36,114
76.44,103
76.52,90
76.6,106
76.68,95
76.76,121
76.84,112
76.92,112
77,88
77.08,118
77.16,91
77.24,102
77.32,94
77.4,118
77.48,107
77.56,113
77.64,124
77.72,103
77.8,120
77.88,98
77.96,116
78.04,120
78.12,112
78.2,128
78.28,122
78.36,138
78.44,134
78.52,122
78.6,126
78.68,132
78.76,120
78.84,110
78.92,94
79,94
79.08,109
79.16,85
79.24,83
79.32,100
79.4,86
79.48,114
79.56,102
79.64,101
79.72,90
79.8,118
79.88,126
79.96,118
80.04,102
80.12,96
80.2,111
80.28,115
80.36,108
80.44,130
80.52,143
80.6,134
80.68,150
80.76,131
80.84,146
80.92,184
81,206
81.08,239
81.16,256
81.24,290
81.32,354
81.4,364
81.48,348
81.56,316
81.64,306
81.72,250
81.8,198
81.88,153
81.96,157
82.04,120
82.12,144
82.2,116
82.28,134
82.36,121
82.44,108
82.52,96
82.6,104
82.68,108
82.76,104
82.84,128
82.92,108
83,105
83.08,102
83.16,106
83.24,102
83.32,130
83.4,119
83.48,126
83.56,128
83.64,126
83.72,94
83.8,116
83.88,108
83.96,90
84.04,87
84.12,82
84.2,98
84.28,96
84.36,98
84.44,87
84.52,105
84.6,98
84.68,98
84.76,78
84.84,98
84.92,94
85,99
85.08,116
85.16,113
85.24,104
85.32,89
85.4,108
85.48,122
85.56,106
85.64,105
85.72,112
85.8,126
85.88,126
85.96,115
86.04,128
86.12,139
86.2,110
86.28,118
86.36,132
86.44,143
86.52,138
86.6,104
86.68,127
86.76,120
86.84,118
86.92,128
87,112
87.08,125
87.16,146
87.24,144
87.32,145
87.4,124
87.48,153
87.56,126
87.64,123
87.72,144
87.8,115
87.88,117
87.96,122
88.04,119
88.12,117
88.2,122
88.28,120
88.36,139
88.44,154
88.52,170
88.6,166
88.68,206
88.76,196
88.84,250
88.92,246
89,230
89.08,204
89.16,171
89.24,188
89.32,162
89.4,144
89.48,135
89.56,126
89.64,96
89.72,112
89.8,111
89.88,120
89.96,96
90.04,94
90.12,100
90.2,98
90.28,120
90.36,114
90.44,121
90.52,120
90.6,110
90.68,102
90.76,108
90.84,96
90.92,92
91,111
91.08,129
91.16,118
91.24,153
91.32,122
91.4,156
91.48,143
91.56,156
91.64,150
91.72,154
91.8,193
91.88,202
91.96,252
92.04,270
92.12,298
92.2,361
92.28,446
92.36,442
92.44,432
92.52,428
92.6,372
92.68,276
92.76,274
92.84,225
92.92,202
93,168
93.08,173
93.16,158
93.24,142
93.32,139
93.4,132
93.48,140
93.56,135
93.64,123
93.72,118
93.8,120
93.88,134
93.96,98
94.04,107
94.12,116
94.2,134
94.28,125
94.36,144
94.44,132
94.52,121
94.6,124
94.68,142
94.76,152
94.84,154
94.92,146
95,138
95.08,148
95.16,122
95.24,152
95.32,158
95.4,146
95.48,156
95.56,144
95.64,174
95.72,172
95.8,196
95.88,226
95.96,250
96.04,289
96.12,366
96.2,398
96.28,454
96.36,520
96.44,536
96.52,518
96.6,435
96.68,365
96.76,324
96.84,284
96.92,236
97,186
97.08,163
97.16,136
97.24,128
97.32,116
97.4,131
97.48,102
97.56,114
97.64,102
97.72,107
97.8,132
97.88,114
97.96,105
98.04,98
98.12,114
98.2,102
98.28,118
98.36,94
98.44,113
98.52,118
98.6,104
98.68,119
98.76,105
98.84,118
98.92,92
99,118
99.08,105
99.16,118
99.24,112
99.32,100
99.4,114
99.48,123
99.56,106
99.64,128
99.72,100
99.8,128
99.88,122
99.96,110
100.04,114
100.12,118
100.2,145
100.28,150
100.36,144
100.44,139
100.52,134
100.6,133
100.68,145
100.76,136
100.84,136
100.92,164
101,166
101.08,164
101.16,172
101.24,156
101.32,164
101.4,161
101.48,132
101.56,184
101.64,197
101.72,165
101.8,170
101.88,158
101.96,138
102.04,149
102.12,146
102.2,138
102.28,150
102.36,141
102.44,155
102.52,144
102.6,122
102.68,116
102.76,144
102.84,134
102.92,124
103,124
103.08,140
103.16,112
103.24,134
103.32,126
103.4,135
103.48,136
103.56,163
103.64,166
103.72,146
103.8,139
103.88,122
103.96,158
104.04,150
104.12,150
104.2,146
104.28,156
104.36,140
104.44,133
104.52,129
104.6,128
104.68,129
104.76,162
104.84,118
104.92,140
105,129
105.08,121
105.16,144
105.24,133
105.32,124
105.4,130
105.48,125
105.56,131
105.64,142
105.72,139
105.8,156
105.88,164
105.96,144
106.04,152
106.12,136
106.2,174
106.28,182
106.36,158
106.44,166
106.52,158
106.6,153
106.68,168
106.76,175
106.84,206
106.92,202
107,212
107.08,211
107.16,218
107.24,274
107.32,272
107.4,272
107.48,297
107.56,316
107.64,292
107.72,328
107.8,244
107.88,279
107.96,250
108.04,242
108.12,218
108.2,231
108.28,206
108.36,205
108.44,228
108.52,250
108.6,252
108.68,228
108.76,217
108.84,258
108.92,198
109,190
109.08,190
109.16,173
109.24,182
109.32,155
109.4,142
109.48,124
109.56,154
109.64,113
109.72,154
109.8,128
109.88,126
109.96,130
110.04,133
110.12,115
110.2,144
110.28,139
110.36,147
110.44,137
110.52,132
110.6,146
110.68,160
110.76,140
110.84,154
110.92,167
111,183
111.08,224
111.16,203
111.24,236
111.32,252
111.4,284
111.48,282
111.56,316
111.64,306
111.72,338
111.8,324
111.88,356
111.96,314
112.04,317
112.12,287
112.2,262
112.28,234
112.36,230
112.44,222
112.52,180
112.6,178
112.68,158
112.76,138
112.84,136
112.92,134
113,148
113.08,152
113.16,108
113.24,119
113.32,122
113.4,132
113.48,112
113.56,124
113.64,114
113.72,94
113.8,134
113.88,134
113.96,114
114.04,134
114.12,130
114.2,128
114.28,100
114.36,124
114.44,116
114.52,128
114.6,124
114.68,118
114.76,105
114.84,104
114.92,116
115,120
115.08,134
115.16,123
115.24,126
115.32,104
115.4,118
115.48,150
115.56,126
115.64,118
115.72,112
115.8,127
115.88,134
115.96,114
116.04,118
116.12,138
116.2,141
116.28,134
116.36,153
116.44,154
116.52,146
116.6,170
116.68,148
116.76,178
116.84,175
116.92,184
117,176
117.08,162
117.16,168
117.24,202
117.32,163
117.4,166
117.48,168
117.56,150
117.64,156
117.72,146
117.8,152
117.88,128
117.96,134
118.04,144
118.12,138
118.2,134
118.28,121
118.36,126
118.44,126
118.52,134
118.6,148
118.68,114
118.76,114
118.84,158
118.92,140
119,137
119.08,126
119.16,127
119.24,142
119.32,146
119.4,128
119.48,108
119.56,166
119.64,144
119.72,138
119.8,160
119.88,156
119.96,162
120.02,142