File: data/xrd_icdd_PDF/00-059-0838 (PD3).csv
5,92
5.1,79
5.2,71
5.3,76
5.4,83
5.5,71
5.6,67
5.7,86
5.8,88
5.9,67
6,67
6.1,56
6.2,74
6.3,67
6.4,64
6.5,72
6.6,66
6.7,85
6.8,72
6.9,66
7,86
7.1,67
7.2,71
7.3,72
7.4,86
7.5,61
7.6,74
7.7,86
7.8,74
7.9,58
8,69
8.1,61
8.2,67
8.3,62
8.4,88
8.5,76
8.6,67
8.7,64
8.8,59
8.9,59
9,79
9.1,64
9.2,71
9.3,79
9.4,66
9.5,56
9.6,85
9.7,53
9.8,59
9.9,59
10,72
10.1,62
10.2,59
10.3,62
10.4,59
10.5,61
10.6,76
10.7,50
10.8,79
10.9,62
11,67
11.1,72
11.2,67
11.3,61
11.4,59
11.5,64
11.6,67
11.7,56
11.8,71
11.9,62
12,59
12.1,66
12.2,62
12.3,71
12.4,56
12.5,74
12.6,53
12.7,58
12.8,62
12.9,56
13,61
13.1,53
13.2,72
13.3,71
13.4,50
13.5,56
13.6,64
13.7,56
13.8,72
13.9,59
14,62
14.1,58
14.2,62
14.3,50
14.4,67
14.5,71
14.6,62
14.7,67
14.8,71
14.9,67
15,67
15.1,62
15.2,59
15.3,66
15.4,50
15.5,66
15.6,83
15.7,83
15.8,92
15.9,90
16,177
16.1,353
16.2,973
16.3,4942
16.4,1875
16.5,149
16.6,98
16.7,79
16.8,62
16.9,61
17,71
17.1,67
17.2,52
17.3,59
17.4,66
17.5,59
17.6,53
17.7,56
17.8,61
17.9,58
18,38
18.1,67
18.2,66
18.3,44
18.4,53
18.5,45
18.6,67
18.7,61
18.8,58
18.9,52
19,41
19.1,56
19.2,44
19.3,56
19.4,55
19.5,53
19.6,59
19.7,56
19.8,44
19.9,66
20,50
20.1,56
20.2,42
20.3,52
20.4,50
20.5,49
20.6,56
20.7,34
20.8,56
20.9,53
21,50
21.1,56
21.2,66
21.3,40
21.4,46
21.5,56
21.6,53
21.7,61
21.8,62
21.9,48
22,62
22.1,66
22.2,62
22.3,58
22.4,48
22.5,62
22.6,50
22.7,38
22.8,59
22.9,56
23,46
23.1,66
23.2,44
23.3,58
23.4,59
23.5,38
23.6,58
23.7,42
23.8,37
23.9,52
24,50
24.1,67
24.2,59
24.3,62
24.4,56
24.5,50
24.6,50
24.7,46
24.8,53
24.9,48
25,50
25.1,48
25.2,53
25.3,38
25.4,66
25.5,50
25.6,79
25.7,56
25.8,49
25.9,61
26,56
26.1,49
26.2,62
26.3,100
26.4,117
26.5,259
26.6,745
26.7,2490
26.8,8082
26.9,1452
27,253
27.1,154
27.2,92
27.3,59
27.4,56
27.5,53
27.6,69
27.7,52
27.8,77
27.9,62
28,69
28.1,59
28.2,72
28.3,61
28.4,56
28.5,62
28.6,46
28.7,50
28.8,44
28.9,44
29,48
29.1,44
29.2,44
29.3,48
29.4,50
29.5,40
29.6,40
29.7,56
29.8,41
29.9,58
30,44
30.1,48
30.2,46
30.3,44
30.4,38
30.5,45
30.6,44
30.7,50
30.8,53
30.9,40
31,55
31.1,50
31.2,46
31.3,46
31.4,37
31.5,53
31.6,79
31.7,48
31.8,56
31.9,42
32,50
32.1,50
32.2,50
32.3,59
32.4,46
32.5,66
32.6,76
32.7,119
32.8,243
32.9,918
33,7569
33.1,3612
33.2,219
33.3,123
33.4,96
33.5,62
33.6,62
33.7,49
33.8,44
33.9,58
34,44
34.1,27
34.2,48
34.3,50
34.4,40
34.5,44
34.6,48
34.7,41
34.8,38
34.9,46
35,32
35.1,40
35.2,45
35.3,56
35.4,53
35.5,48
35.6,46
35.7,38
35.8,42
35.9,46
36,48
36.1,40
36.2,42
36.3,50
36.4,38
36.5,42
36.6,56
36.7,102
36.8,225
36.9,829
37,2510
37.1,1063
37.2,139
37.3,69
37.4,53
37.5,41
37.6,42
37.7,48
37.8,44
37.9,38
38,37
38.1,31
38.2,49
38.3,34
38.4,49
38.5,30
38.6,35
38.7,38
38.8,44
38.9,38
39,28
39.1,36
39.2,41
39.3,53
39.4,62
39.5,159
39.6,104
39.7,53
39.8,40
39.9,41
40,36
40.1,48
40.2,35
40.3,45
40.4,59
40.5,94
40.6,396
40.7,692
40.8,388
40.9,74
41,56
41.1,45
41.2,59
41.3,40
41.4,45
41.5,50
41.6,36
41.7,41
41.8,29
41.9,38
42,29
42.1,41
42.2,46
42.3,29
42.4,37
42.5,25
42.6,46
42.7,38
42.8,46
42.9,98
43,151
43.1,96
43.2,38
43.3,27
43.4,30
43.5,38
43.6,37
43.7,36
43.8,62
43.9,36
44,38
44.1,48
44.2,45
44.3,55
44.4,34
44.5,40
44.6,41
44.7,32
44.8,36
44.9,44
45,41
45.1,45
45.2,58
45.3,56
45.4,42
45.5,41
45.6,38
45.7,48
45.8,46
45.9,61
46,102
46.1,237
46.2,882
46.3,967
46.4,713
46.5,123
46.6,85
46.7,66
46.8,58
46.9,53
47,35
47.1,50
47.2,40
47.3,44
47.4,44
47.5,38
47.6,46
47.7,42
47.8,45
47.9,49
48,52
48.1,66
48.2,59
48.3,52
48.4,50
48.5,53
48.6,44
48.7,45
48.8,42
48.9,49
49,48
49.1,46
49.2,49
49.3,56
49.4,50
49.5,59
49.6,71
49.7,59
49.8,62
49.9,94
50,139
50.1,256
50.2,416
50.3,1648
50.4,6257
50.5,2862
50.6,1030
50.7,266
50.8,164
50.9,85
51,88
51.1,71
51.2,71
51.3,44
51.4,59
51.5,53
51.6,55
51.7,41
51.8,56
51.9,32
52,50
52.1,45
52.2,42
52.3,38
52.4,35
52.5,53
52.6,32
52.7,44
52.8,46
52.9,48
53,38
53.1,50
53.2,36
53.3,45
53.4,44
53.5,48
53.6,37
53.7,44
53.8,44
53.9,32
54,46
54.1,40
54.2,42
54.3,55
54.4,53
54.5,36
54.6,37
54.7,45
54.8,66
54.9,88
55,119
55.1,279
55.2,1260
55.3,1156
55.4,1163
55.5,210
55.6,79
55.7,64
55.8,59
55.9,59
56,59
56.1,38
56.2,48
56.3,34
56.4,42
56.5,41
56.6,38
56.7,44
56.8,42
56.9,34
57,49
57.1,38
57.2,31
57.3,37
57.4,44
57.5,35
57.6,44
57.7,48
57.8,40
57.9,55
58,28
58.1,46
58.2,50
58.3,36
58.4,34
58.5,44
58.6,42
58.7,44
58.8,50
58.9,44
59,45
59.1,25
59.2,37
59.3,20
59.4,45
59.5,30
59.6,53
59.7,45
59.8,48
59.9,56
60,50
60.1,45
60.2,72
60.3,83
60.4,142
60.5,324
60.6,1267
60.7,1170
60.8,1197
60.9,303
61,130
61.1,88
61.2,56
61.3,66
61.4,69
61.5,52
61.6,50
61.7,56
61.8,53
61.9,40
62,40
62.1,38
62.2,32
62.3,29
62.4,36
62.5,36
62.6,44
62.7,59
62.8,32
62.9,40
63,50
63.1,37
63.2,44
63.3,38
63.4,32
63.5,44
63.6,41
63.7,41
63.8,56
63.9,58
64,92
64.1,313
64.2,441
64.3,279
64.4,177
64.5,53
64.6,59
64.7,48
64.8,38
64.9,41
65,45
65.1,59
65.2,49
65.3,48
65.4,59
65.5,48
65.6,46
65.7,53
65.8,48
65.9,59
66,72
66.1,61
66.2,71
66.3,64
66.4,72
66.5,164
66.6,762
66.7,751
66.8,548
66.9,346
67,112
67.1,74
67.2,69
67.3,53
67.4,48
67.5,50
67.6,48
67.7,50
67.8,67
67.9,66
68,86
68.1,119
68.2,193
68.3,671
68.4,1037
68.5,511
68.6,552
68.7,121
68.8,96
68.9,132
69,156
69.1,396
69.2,1632
69.3,949
69.4,918
69.5,449
69.6,108
69.7,88
69.8,55
69.9,56
70,59
70.1,56
70.2,50
70.3,53
70.4,53
70.5,55
70.6,45
70.7,44
70.8,37
70.9,44
71,32
71.1,31
71.2,38
71.3,53
71.4,41
71.5,56
71.6,38
71.7,45
71.8,32
71.9,42
72,53
72.1,42
72.2,50
72.3,50
72.4,46
72.5,44
72.6,56
72.7,52
72.8,50
72.9,71
73,50
73.1,48
73.2,44
73.3,40
73.4,56
73.5,49
73.6,37
73.7,44
73.8,49
73.9,46
74,29
74.1,50
74.2,53
74.3,42
74.4,45
74.5,53
74.6,48
74.7,46
74.8,53
74.9,48
75,49
75.1,48
75.2,48
75.3,56
75.4,44
75.5,59
75.6,53
75.7,58
75.8,61
75.9,50
76,67
76.1,85
76.2,119
76.3,250
76.4,841
76.5,335
76.6,424
76.7,276
76.8,86
76.9,83
77,79
77.1,83
77.2,62
77.3,46
77.4,71
77.5,66
77.6,55
77.7,49
77.8,55
77.9,55
78,56
78.1,53
78.2,62
78.3,62
78.4,72
78.5,74
78.6,112
78.7,296
78.8,353
78.9,190
79,292
79.1,108
79.2,67
79.3,77
79.4,56
79.5,50
79.6,50
79.7,69
79.8,79
79.9,66
80,77
80.1,142
80.2,196
80.3,557
80.4,894
80.5,331
80.6,660
80.7,225
80.8,177
80.9,193
81,246
81.1,812
81.2,1576
81.3,520
81.4,870
81.5,412
81.6,130
81.7,104
81.8,94
81.9,67
82,72
82.1,56
82.2,67
82.3,66
82.4,53
82.5,72
82.6,69
82.7,71
82.8,50
82.9,67
83,66
83.1,66
83.2,44
83.3,66
83.4,56
83.5,67
83.6,50
83.7,52
83.8,62
83.9,61
84,58
84.1,58
84.2,69
84.3,74
84.4,71
84.5,52
84.6,86
84.7,102
84.8,159
84.9,416
85,999
85.1,286
85.2,437
85.3,342
85.4,139
85.5,72
85.6,67
85.7,62
85.8,69
85.9,53
86,55
86.1,38
86.2,50
86.3,55
86.4,48
86.5,44
86.6,48
86.7,44
86.8,53
86.9,66
87,53
87.1,56
87.2,59
87.3,71
87.4,56
87.5,56
87.6,71
87.7,96
87.8,96
87.9,149
88,376
88.1,918
88.2,279
88.3,388
88.4,437
88.5,117
88.6,86
88.7,67
88.8,72
88.9,59
89,66
89.1,59
89.2,62
89.3,49
89.4,52
89.5,42
89.6,59
89.7,48
89.8,48
89.9,40
90,50
90.1,66
90.2,71
90.3,72
90.4,119
90.5,365
90.6,130
90.7,86
90.8,188
90.9,79
91,52
91.1,38
91.2,50
91.3,50
91.4,48
91.5,56
91.6,52
91.7,67
91.8,52
91.9,79
92,56
92.1,72
92.2,66
92.3,50
92.4,59
92.5,42
92.6,67
92.7,38
92.8,40
92.9,59
93,56
93.1,62
93.2,45
93.3,69
93.4,56
93.5,42
93.6,48
93.7,55
93.8,56
93.9,53
94,72
94.1,94
94.2,202
94.3,640
94.4,488
94.5,207
94.6,392
94.7,303
94.8,106
94.9,71
95,71
95.1,71
95.2,53
95.3,71
95.4,50
95.5,55
95.6,44
95.7,50
95.8,64
95.9,50
96,48
96.1,69
96.2,71
96.3,61
96.4,121
96.5,262
96.6,256
96.7,112
96.8,146
96.9,216
97,90
97.1,67
97.2,50
97.3,53
97.4,64
97.5,59
97.6,50
97.7,66
97.8,50
97.9,42
98,55
98.1,50
98.2,49
98.3,44
98.4,49
98.5,45
98.6,59
98.7,55
98.8,53
98.9,62
99,55
99.1,64
99.2,49
99.3,56
99.4,62
99.5,61
99.6,83
99.7,130
99.8,67
99.9,62
100,85
100.1,62
100.2,71
100.3,69
100.4,44
100.5,53
100.6,58
100.7,48
100.8,44
100.9,48
101,48
101.1,50
101.2,50
101.3,44
101.4,48
101.5,62
101.6,50
101.7,62
101.8,61
101.9,49
102,58
102.1,66
102.2,59
102.3,50
102.4,66
102.5,67
102.6,56
102.7,44
102.8,45
102.9,56
103,66
103.1,55
103.2,71
103.3,77
103.4,100
103.5,188
103.6,502
103.7,262
103.8,156
103.9,225
104,328
104.1,185
104.2,164
104.3,256
104.4,671
104.5,520
104.6,204
104.7,228
104.8,416
104.9,225
105,114
105.1,94
105.2,62
105.3,56
105.4,69
105.5,66
105.6,76
105.7,71
105.8,77
105.9,117
106,219
106.1,353
106.2,149
106.3,154
106.4,185
106.5,202
106.6,104
106.7,77
106.8,66
106.9,53
107,53
107.1,53
107.2,66
107.3,56
107.4,61
107.5,71
107.6,72
107.7,62
107.8,64
107.9,59
108,61
108.1,86
108.2,123
108.3,253
108.4,467
108.5,166
108.6,128
108.7,177
108.8,256
108.9,117
109,90
109.1,56
109.2,71
109.3,66
109.4,55
109.5,59
109.6,59
109.7,56
109.8,44
109.9,66
110,46
110.1,44
110.2,41
110.3,52
110.4,52
110.5,44
110.6,53
110.7,50
110.8,45
110.9,67
111,48
111.1,58
111.2,50
111.3,62
111.4,52
111.5,53
111.6,62
111.7,48
111.8,64
111.9,50
112,50
112.1,55
112.2,50
112.3,48
112.4,59
112.5,46
112.6,48
112.7,49
112.8,53
112.9,50
113,58
113.1,76
113.2,53
113.3,62
113.4,66
113.5,72
113.6,53
113.7,71
113.8,69
113.9,92
114,125
114.1,253
114.2,361
114.3,132
114.4,108
114.5,156
114.6,250
114.7,137
114.8,112
114.9,74
115,77
115.1,59
115.2,64
115.3,69
115.4,67
115.5,79
115.6,96
115.7,104
115.8,161
115.9,303
116,185
116.1,144
116.2,121
116.3,207
116.4,216
116.5,193
116.6,237
116.7,562
116.8,1076
116.9,1076
117,566
117.1,357
117.2,441
117.3,620
117.4,557
117.5,269
117.6,164
117.7,137
117.8,81
117.9,98
118,98
118.1,110
118.2,132
118.3,137
118.4,246
118.5,424
118.6,630
118.7,313
118.8,199
118.9,207
119,282
119.1,320
119.2,177
119.3,130
119.4,98
119.5,81
119.6,81
119.7,77
119.8,76
119.9,59
120,71
120.1,66
120.2,62
120.3,62
120.4,71
120.5,58
120.6,77
120.7,62
120.8,62
120.9,67
121,58
121.1,81
121.2,79
121.3,67
121.4,72
121.5,61
121.6,77
121.7,79
121.8,81
121.9,76
122,59
122.1,79
122.2,67
122.3,66
122.4,72
122.5,62
122.6,71
122.7,67
122.8,56
122.9,96
123,61
123.1,67
123.2,76
123.3,61
123.4,55
123.5,66
123.6,79
123.7,83
123.8,83
123.9,59
124,86
124.1,96
124.2,92
124.3,123
124.4,114
124.5,174
124.6,262
124.7,497
124.8,1056
124.9,552
125,299
125.1,219
125.2,296
125.3,497
125.4,462
125.5,234
125.6,137
125.7,123
125.8,100
125.9,94
126,72
126.1,72
126.2,83
126.3,66
126.4,62
126.5,56
126.6,67
126.7,83
126.8,74
126.9,64
127,77
127.1,72
127.2,76
127.3,83
127.4,86
127.5,88
127.6,98
127.7,144
127.8,190
127.9,154
128,117
128.1,86
128.2,100
128.3,104
128.4,121
128.5,108
128.6,94
128.7,106
128.8,102
128.9,83
129,94
129.1,90
129.2,96
129.3,123
129.4,172
129.5,243
129.6,471
129.7,576
129.8,296
129.9,199
130,204
130.1,188
130.2,292
130.3,376
130.4,296
130.5,240
130.6,289
130.7,454
130.8,729
130.9,692
131,357
131.1,246
131.2,234
131.3,246
131.4,388
131.5,458
131.6,296
131.7,156
131.8,117
131.9,106
132,123
132.1,77
132.2,81
132.3,77
132.4,100
132.5,72
132.6,79
132.7,100
132.8,92
132.9,74
133,94
133.1,71
133.2,71
133.3,79
133.4,83
133.5,79
133.6,72
133.7,71
133.8,72
133.9,77
134,79
134.1,69
134.2,76
134.3,67
134.4,83
134.5,94
134.6,79
134.7,74
134.8,83
134.9,76
135,79
135.1,66
135.2,72
135.3,90
135.4,92
135.5,76
135.6,85
135.7,98
135.8,146
135.9,234
136,182
136.1,128
136.2,125
136.3,90
136.4,90
136.5,117
136.6,130
136.7,123
136.8,119
136.9,90
137,77
137.1,96
137.2,86
137.3,88
137.4,69
137.5,77
137.6,81
137.7,79
137.8,76
137.9,77
138,69
138.1,67
138.2,62
138.3,79
138.4,66
138.5,79
138.6,100
138.7,69
138.8,81
138.9,66
139,71
139.1,72
139.2,66
139.3,66
139.4,83
139.5,79
139.6,79
139.7,88
139.8,77
139.9,83
140,96