File: data/xrd_icdd_PDF/00-059-0840 (PD3).csv
5,188
5.1,174
5.2,169
5.3,161
5.4,159
5.5,121
5.6,110
5.7,177
5.8,137
5.9,193
6,114
6.1,123
6.2,177
6.3,135
6.4,125
6.5,108
6.6,159
6.7,151
6.8,114
6.9,172
7,149
7.1,137
7.2,146
7.3,159
7.4,128
7.5,149
7.6,156
7.7,182
7.8,169
7.9,137
8,119
8.1,149
8.2,123
8.3,98
8.4,156
8.5,130
8.6,161
8.7,117
8.8,164
8.9,169
9,164
9.1,159
9.2,132
9.3,182
9.4,177
9.5,185
9.6,128
9.7,139
9.8,123
9.9,151
10,169
10.1,166
10.2,172
10.3,142
10.4,130
10.5,185
10.6,104
10.7,142
10.8,135
10.9,161
11,114
11.1,139
11.2,177
11.3,154
11.4,161
11.5,139
11.6,137
11.7,182
11.8,132
11.9,151
12,164
12.1,169
12.2,130
12.3,110
12.4,154
12.5,137
12.6,142
12.7,190
12.8,151
12.9,156
13,139
13.1,151
13.2,132
13.3,177
13.4,146
13.5,144
13.6,135
13.7,177
13.8,130
13.9,137
14,130
14.1,169
14.2,177
14.3,177
14.4,174
14.5,156
14.6,139
14.7,180
14.8,196
14.9,193
15,256
15.1,289
15.2,404
15.3,708
15.4,458
15.5,259
15.6,188
15.7,193
15.8,172
15.9,169
16,137
16.1,207
16.2,193
16.3,188
16.4,159
16.5,154
16.6,149
16.7,199
16.8,166
16.9,213
17,250
17.1,306
17.2,262
17.3,213
17.4,169
17.5,207
17.6,166
17.7,169
17.8,190
17.9,222
18,177
18.1,177
18.2,253
18.3,234
18.4,328
18.5,506
18.6,702
18.7,361
18.8,240
18.9,216
19,177
19.1,185
19.2,196
19.3,188
19.4,199
19.5,182
19.6,177
19.7,266
19.8,404
19.9,650
20,372
20.1,231
20.2,253
20.3,164
20.4,144
20.5,190
20.6,146
20.7,159
20.8,177
20.9,146
21,174
21.1,156
21.2,154
21.3,164
21.4,125
21.5,169
21.6,177
21.7,146
21.8,164
21.9,117
22,172
22.1,164
22.2,161
22.3,125
22.4,204
22.5,222
22.6,216
22.7,146
22.8,121
22.9,174
23,137
23.1,121
23.2,156
23.3,128
23.4,154
23.5,180
23.6,216
23.7,282
23.8,177
23.9,123
24,154
24.1,159
24.2,92
24.3,169
24.4,128
24.5,172
24.6,188
24.7,286
24.8,262
24.9,177
25,156
25.1,161
25.2,154
25.3,196
25.4,231
25.5,299
25.6,511
25.7,1109
25.8,2190
25.9,1421
26,471
26.1,279
26.2,216
26.3,144
26.4,144
26.5,174
26.6,159
26.7,204
26.8,185
26.9,156
27,188
27.1,246
27.2,303
27.3,246
27.4,289
27.5,342
27.6,484
27.7,864
27.8,1866
27.9,4251
28,4070
28.1,1689
28.2,942
28.3,600
28.4,511
28.5,586
28.6,1011
28.7,1962
28.8,1858
28.9,1218
29,562
29.1,317
29.2,219
29.3,243
29.4,231
29.5,172
29.6,169
29.7,135
29.8,108
29.9,166
30,119
30.1,130
30.2,123
30.3,123
30.4,159
30.5,125
30.6,204
30.7,259
30.8,475
30.9,1109
31,1129
31.1,511
31.2,246
31.3,216
31.4,276
31.5,299
31.6,180
31.7,188
31.8,117
31.9,98
32,151
32.1,146
32.2,161
32.3,292
32.4,552
32.5,392
32.6,204
32.7,159
32.8,108
32.9,159
33,146
33.1,180
33.2,276
33.3,471
33.4,824
33.5,790
33.6,342
33.7,216
33.8,196
33.9,182
34,225
34.1,365
34.2,493
34.3,437
34.4,272
34.5,210
34.6,380
34.7,484
34.8,467
34.9,762
35,847
35.1,543
35.2,388
35.3,256
35.4,361
35.5,497
35.6,506
35.7,372
35.8,240
35.9,185
36,132
36.1,154
36.2,246
36.3,357
36.4,331
36.5,182
36.6,139
36.7,135
36.8,135
36.9,146
37,177
37.1,262
37.2,243
37.3,123
37.4,166
37.5,74
37.6,92
37.7,125
37.8,164
37.9,117
38,110
38.1,83
38.2,114
38.3,125
38.4,117
38.5,161
38.6,177
38.7,237
38.8,289
38.9,216
39,117
39.1,146
39.2,119
39.3,161
39.4,202
39.5,174
39.6,154
39.7,166
39.8,172
39.9,292
40,282
40.1,272
40.2,303
40.3,650
40.4,1163
40.5,980
40.6,751
40.7,538
40.8,502
40.9,433
41,424
41.1,449
41.2,790
41.3,1082
41.4,1197
41.5,900
41.6,686
41.7,576
41.8,317
41.9,231
42,174
42.1,182
42.2,149
42.3,132
42.4,161
42.5,144
42.6,180
42.7,219
42.8,219
42.9,188
43,156
43.1,98
43.2,132
43.3,151
43.4,164
43.5,207
43.6,350
43.7,630
43.8,445
43.9,286
44,188
44.1,156
44.2,164
44.3,177
44.4,222
44.5,433
44.6,1030
44.7,1197
44.8,807
44.9,380
45,253
45.1,228
45.2,144
45.3,106
45.4,151
45.5,146
45.6,135
45.7,130
45.8,222
45.9,380
46,571
46.1,428
46.2,222
46.3,185
46.4,161
46.5,207
46.6,207
46.7,331
46.8,497
46.9,384
47,222
47.1,164
47.2,202
47.3,328
47.4,380
47.5,266
47.6,199
47.7,164
47.8,117
47.9,102
48,172
48.1,210
48.2,250
48.3,313
48.4,586
48.5,784
48.6,640
48.7,484
48.8,420
48.9,303
49,190
49.1,159
49.2,108
49.3,92
49.4,164
49.5,144
49.6,259
49.7,222
49.8,177
49.9,132
50,117
50.1,169
50.2,188
50.3,237
50.4,250
50.5,180
50.6,119
50.7,151
50.8,166
50.9,164
51,234
51.1,445
51.2,729
51.3,686
51.4,581
51.5,506
51.6,630
51.7,480
51.8,292
51.9,210
52,144
52.1,130
52.2,139
52.3,104
52.4,135
52.5,185
52.6,207
52.7,350
52.8,380
52.9,357
53,346
53.1,471
53.2,372
53.3,269
53.4,222
53.5,259
53.6,357
53.7,342
53.8,204
53.9,137
54,128
54.1,128
54.2,151
54.3,169
54.4,199
54.5,372
54.6,586
54.7,529
54.8,676
54.9,590
55,424
55.1,269
55.2,202
55.3,169
55.4,202
55.5,240
55.6,266
55.7,331
55.8,520
55.9,967
56,924
56.1,713
56.2,400
56.3,262
56.4,250
56.5,210
56.6,190
56.7,166
56.8,253
56.9,511
57,433
57.1,369
57.2,276
57.3,286
57.4,276
57.5,246
57.6,219
57.7,339
57.8,342
57.9,331
58,286
58.1,262
58.2,222
58.3,202
58.4,299
58.5,511
58.6,520
58.7,428
58.8,396
58.9,557
59,686
59.1,471
59.2,361
59.3,199
59.4,182
59.5,182
59.6,299
59.7,365
59.8,292
59.9,213
60,202
60.1,279
60.2,400
60.3,392
60.4,475
60.5,640
60.6,511
60.7,484
60.8,441
60.9,462
61,361
61.1,253
61.2,262
61.3,253
61.4,234
61.5,199
61.6,199
61.7,164
61.8,246
61.9,243
62,324
62.1,396
62.2,376
62.3,361
62.4,408
62.5,282
62.6,225
62.7,193
62.8,196
62.9,216
63,185
63.1,164
63.2,151
63.3,125
63.4,144
63.5,112
63.6,172
63.7,202
63.8,234
63.9,172
64,185
64.1,172
64.2,231
64.3,210
64.4,202
64.5,262
64.6,313
64.7,269
64.8,253
64.9,172
65,151
65.1,85
65.2,137
65.3,85
65.4,96
65.5,110
65.6,149
65.7,139
65.8,177
65.9,146
66,121
66.1,182
66.2,188
66.3,231
66.4,172
66.5,188
66.6,159
66.7,279
66.8,266
66.9,228
67,180
67.1,174
67.2,156
67.3,210
67.4,299
67.5,416
67.6,292
67.7,286
67.8,222
67.9,234
68,180
68.1,156
68.2,110
68.3,90
68.4,88
68.5,130
68.6,121
68.7,146
68.8,151
68.9,213
69,276
69.1,259
69.2,177
69.3,135
69.4,149
69.5,98
69.6,74
69.7,137
69.8,137
69.9,139
70,253
70.1,303
70.2,237
70.3,182
70.4,156
70.5,144
70.6,182
70.7,269
70.8,292
70.9,279
71,310
71.1,272
71.2,286
71.3,269
71.4,234
71.5,169
71.6,180
71.7,159
71.8,259
71.9,286
72,306
72.1,420
72.2,590
72.3,449
72.4,484
72.5,449
72.6,392
72.7,313
72.8,269
72.9,219
73,128
73.1,172
73.2,149
73.3,86
73.4,128
73.5,83
73.6,108
73.7,149
73.8,164
73.9,121
74,137
74.1,132
74.2,137
74.3,159
74.4,149
74.5,180
74.6,166
74.7,125
74.8,123
74.9,137
75,177
75.1,210
75.2,177
75.3,182
75.4,231
75.5,225
75.6,253
75.7,266
75.8,246
75.9,253
76,328
76.1,342
76.2,350
76.3,276
76.4,216
76.5,180
76.6,142
76.7,161
76.8,110
76.9,98
77,149
77.1,151
77.2,117
77.3,146
77.4,172
77.5,234
77.6,231
77.7,210
77.8,216
77.9,219
78,188
78.1,213
78.2,253
78.3,266
78.4,231
78.5,210
78.6,193
78.7,151
78.8,123
78.9,154
79,156
79.1,137
79.2,151
79.3,149
79.4,199
79.5,262
79.6,225
79.7,204
79.8,193
79.9,237
80,303
80.1,272
80.2,299
80.3,320
80.4,380
80.5,376
80.6,299
80.7,324
80.8,250
80.9,213
81,185
81.1,279
81.2,282
81.3,306
81.4,331
81.5,369
81.6,454
81.7,342
81.8,313
81.9,286
82,246
82.1,202
82.2,240
82.3,250
82.4,193
82.5,172
82.6,135
82.7,144
82.8,125
82.9,177
83,250
83.1,328
83.2,243
83.3,256
83.4,250
83.5,207
83.6,199
83.7,216
83.8,182
83.9,202
84,139
84.1,216
84.2,149
84.3,177
84.4,156
84.5,190
84.6,182
84.7,180
84.8,207
84.9,228
85,216
85.1,213
85.2,225
85.3,234
85.4,199
85.5,193
85.6,132
85.7,164
85.8,135
85.9,102
86,144
86.1,106
86.2,137
86.3,96
86.4,119
86.5,172
86.6,199
86.7,151
86.8,234
86.9,256
87,306
87.1,310
87.2,256
87.3,279
87.4,253
87.5,259
87.6,228
87.7,234
87.8,222
87.9,202
88,216
88.1,144
88.2,130
88.3,117
88.4,139
88.5,142
88.6,174
88.7,128
88.8,193
88.9,180
89,137
89.1,161
89.2,154
89.3,156
89.4,169
89.5,174
89.6,225
89.7,259
89.8,324
89.9,262
90,262
90.1,292
90.2,237
90.3,262
90.4,234
90.5,289
90.6,342
90.7,292
90.8,306
90.9,350
91,350
91.1,269
91.2,243
91.3,231
91.4,240
91.5,262
91.6,250
91.7,172
91.8,204
91.9,199
92,237
92.1,172
92.2,207
92.3,177
92.4,190
92.5,219
92.6,286
92.7,310
92.8,246
92.9,253
93,289
93.1,289
93.2,310
93.3,246
93.4,190
93.5,237
93.6,219
93.7,202
93.8,182
93.9,225
94,169
94.1,231
94.2,216
94.3,234
94.4,240
94.5,219
94.6,234
94.7,228
94.8,164
94.9,193
95,154
95.1,182
95.2,202
95.3,188
95.4,216
95.5,213
95.6,149
95.7,193
95.8,169
95.9,119
96,123
96.1,144
96.2,142
96.3,161
96.4,256
96.5,234
96.6,246
96.7,243
96.8,272
96.9,246
97,202
97.1,237
97.2,156
97.3,132
97.4,119
97.5,130
97.6,188
97.7,146
97.8,146
97.9,125
98,132
98.1,135
98.2,123
98.3,161
98.4,135
98.5,146
98.6,130
98.7,144
98.8,139
98.9,166
99,125
99.1,128
99.2,146
99.3,139
99.4,193
99.5,144
99.6,137
99.7,164
99.8,188
99.9,144
100,144
100.1,121
100.2,117
100.3,164
100.4,144
100.5,161
100.6,159
100.7,188
100.8,169
100.9,146
101,177
101.1,177
101.2,196
101.3,169
101.4,137
101.5,172
101.6,188
101.7,177
101.8,172
101.9,159
102,207
102.1,177
102.2,154
102.3,114
102.4,135
102.5,164
102.6,149
102.7,94
102.8,135
102.9,128
103,156
103.1,185
103.2,185
103.3,196
103.4,169
103.5,164
103.6,137
103.7,130
103.8,130
103.9,139
104,146
104.1,139
104.2,128
104.3,137
104.4,149
104.5,146
104.6,182
104.7,139
104.8,128
104.9,159
105,172
105.1,169
105.2,154
105.3,169
105.4,174
105.5,185
105.6,213
105.7,174
105.8,156
105.9,185
106,169
106.1,172
106.2,193
106.3,161
106.4,135
106.5,188
106.6,130
106.7,174
106.8,135
106.9,144
107,137
107.1,100
107.2,135
107.3,92
107.4,71
107.5,72
107.6,79
107.7,94
107.8,104
107.9,121
108,135
108.1,112
108.2,117
108.3,102
108.4,137
108.5,156
108.6,128
108.7,174
108.8,156
108.9,207
109,177
109.1,169
109.2,207
109.3,159
109.4,182
109.5,154
109.6,169
109.7,154
109.8,110
109.9,159
110,149
110.1,130
110.2,142
110.3,117
110.4,128
110.5,139
110.6,142
110.7,137
110.8,142
110.9,139
111,108
111.1,139
111.2,110
111.3,135
111.4,121
111.5,156
111.6,139
111.7,121
111.8,104
111.9,132
112,130
112.1,119
112.2,139
112.3,119
112.4,169
112.5,166
112.6,185
112.7,164
112.8,154
112.9,149
113,130
113.1,117
113.2,98
113.3,106
113.4,139
113.5,128
113.6,100
113.7,121
113.8,102
113.9,164
114,144
114.1,135
114.2,117
114.3,177
114.4,174
114.5,139
114.6,156
114.7,156
114.8,159
114.9,130
115,154
115.1,146
115.2,190
115.3,188
115.4,151
115.5,139
115.6,142
115.7,182
115.8,112
115.9,169
116,123
116.1,169
116.2,166
116.3,137
116.4,177
116.5,164
116.6,185
116.7,146
116.8,154
116.9,188
117,225
117.1,213
117.2,180
117.3,216
117.4,240
117.5,185
117.6,237
117.7,213
117.8,222
117.9,240
118,306
118.1,350
118.2,317
118.3,219
118.4,240
118.5,219
118.6,256
118.7,250
118.8,164
118.9,137
119,128
119.1,177
119.2,151
119.3,149
119.4,172
119.5,207
119.6,164
119.7,139
119.8,149
119.9,149
120,174
120.1,156
120.2,164
120.3,172
120.4,156
120.5,222
120.6,188
120.7,164
120.8,177
120.9,210
121,237
121.1,231
121.2,180
121.3,199
121.4,237
121.5,253
121.6,237
121.7,172
121.8,177
121.9,202
122,174
122.1,154
122.2,193
122.3,199
122.4,177
122.5,169
122.6,161
122.7,182
122.8,146
122.9,149
123,149
123.1,188
123.2,182
123.3,169
123.4,139
123.5,130
123.6,108
123.7,123
123.8,137
123.9,146
124,110
124.1,123
124.2,121
124.3,154
124.4,104
124.5,159
124.6,132
124.7,121
124.8,137
124.9,177
125,199
125.1,156
125.2,196
125.3,193
125.4,225
125.5,237
125.6,237
125.7,213
125.8,161
125.9,199
126,185
126.1,204
126.2,193
126.3,164
126.4,196
126.5,166
126.6,190
126.7,174
126.8,210
126.9,196
127,174
127.1,154
127.2,159
127.3,177
127.4,149
127.5,149
127.6,149
127.7,161
127.8,137
127.9,130
128,182
128.1,135
128.2,216
128.3,188
128.4,164
128.5,146
128.6,202
128.7,210
128.8,174
128.9,174
129,180
129.1,164
129.2,193
129.3,193
129.4,174
129.5,202
129.6,151
129.7,172
129.8,169
129.9,166
130,135
130.1,125
130.2,161
130.3,161
130.4,137
130.5,146
130.6,135
130.7,146
130.8,135
130.9,108
131,151
131.1,185
131.2,174
131.3,174
131.4,182
131.5,185
131.6,204
131.7,172
131.8,149
131.9,188
132,196
132.1,199
132.2,193
132.3,177
132.4,185
132.5,121
132.6,151
132.7,164
132.8,144
132.9,137
133,172
133.1,151
133.2,149
133.3,139
133.4,144
133.5,144
133.6,159
133.7,202
133.8,166
133.9,219
134,204
134.1,177
134.2,188
134.3,222
134.4,185
134.5,166
134.6,193
134.7,188
134.8,142
134.9,137
135,199
135.1,172
135.2,139
135.3,180
135.4,125
135.5,164
135.6,149
135.7,132
135.8,132
135.9,172
136,128
136.1,202
136.2,177
136.3,139
136.4,137
136.5,164
136.6,154
136.7,172
136.8,174
136.9,180
137,130
137.1,169
137.2,154
137.3,164
137.4,164
137.5,169
137.6,154
137.7,156
137.8,135
137.9,117
138,123
138.1,130
138.2,190
138.3,182
138.4,174
138.5,159
138.6,180
138.7,202
138.8,156
138.9,164
139,172
139.1,222
139.2,202
139.3,166
139.4,190
139.5,169
139.6,213
139.7,172
139.8,161
139.88,169