File: data/xrd_icdd_PDF/00-067-0510 (PD3).csv
3.88125,3838.19
3.98125,3830.25
4.08125,3906.06
4.18125,3731.2
4.28125,3716.9
4.38125,3609.28
4.48125,3484.96
4.58125,3380.75
4.68125,3049.59
4.78125,3540.36
4.88125,3404.3
4.98125,3186.02
5.08125,3164.02
5.18125,3111.04
5.28125,3278.12
5.38125,3369.64
5.48125,3250.65
5.58125,3376.92
5.68125,3300.41
5.78125,3221.94
5.88125,3131.44
5.98125,3017.59
6.08125,3082.44
6.18125,3176.96
6.28125,3230.88
6.38125,3053.77
6.48125,2913.06
6.58125,2827.22
6.68125,2837.26
6.78125,2922.99
6.88125,2810.231
6.98125,2891.19
7.08125,2854.2
7.18125,2784.83
7.28125,3009.55
7.38125,2886.22
7.48125,2830.98
7.58125,2813.04
7.68125,2871.77
7.78125,2802.67
7.88125,2706
7.98125,2842.98
8.08125,2761.53
8.18125,2745.56
8.28125,2745.78
8.38125,2625.12
8.48125,2715.33
8.58125,2671.76
8.68125,2778.54
8.78125,2605.6
8.88125,2575.43
8.98125,2617.7
9.08125,2573.89
9.18125,2537.67
9.28125,2546.65
9.38125,2655.58
9.48125,2474.11
9.58125,2535.15
9.68125,2620.52
9.78125,2504.14
9.88125,2512.6
9.98125,2545.46
10.08125,2625.76
10.18125,2450.56
10.28125,2496.69
10.38125,2482.997
10.48125,2515.61
10.58125,2459.55
10.68125,2318.35
10.78125,2401.25
10.88125,2389.73
10.98125,2312.08
11.08125,2631.93
11.18125,2763.3
11.28125,3266.43
11.38125,4781.63
11.48125,6382.43
11.58125,6667.26
11.68125,5489.19
11.78125,3535.13
11.88125,2695.77
11.98125,2484.47
12.08125,2382.08
12.18125,2357.83
12.28125,2368.67
12.38125,2219.14
12.48125,2434.84
12.58125,2346.09
12.68125,2391.93
12.78125,2208.64
12.88125,2389.53
12.98125,2321.6
13.08125,2339.13
13.18125,2261.04
13.28125,2221.02
13.38125,2438.23
13.48125,2397.59
13.58125,2364.6
13.68125,2160.39
13.78125,2318
13.88125,2149.27
13.98125,2212.23
14.08125,2312.46
14.18125,2176.78
14.28125,2265.33
14.38125,2307.43
14.48125,2224.04
14.58125,2280.68
14.68125,2215.72
14.78125,2257.04
14.88125,2194.45
14.98125,2267.36
15.08125,2222.45
15.18125,2274.07
15.28125,2307.36
15.38125,2280.93
15.48125,2217.2
15.58125,2197.19
15.68125,2155.51
15.78125,2167.24
15.88125,2159.26
15.98125,2159.84
16.08125,2187.95
16.18125,2187.31
16.28125,2235.76
16.38125,2227.53
16.48125,2301.64
16.58125,2155.85
16.68125,2176.15
16.78125,2123.01
16.88125,2151.68
16.98125,2043.8
17.08125,2129.5
17.18125,2215.82
17.28125,2181.36
17.38125,2254.13
17.48125,2139.71
17.58125,2127.14
17.68125,2226.831
17.78125,2119.89
17.88125,2033.65
17.98125,2106.08
18.08125,2213.98
18.18125,2235.45
18.28125,2170.43
18.38125,2132.15
18.48125,2111.01
18.58125,2145.75
18.68125,2120.34
18.78125,2156.35
18.88125,2108.29
18.98125,2123.34
19.08125,2032.39
19.18125,2060.15
19.28125,1999.65
19.38125,2159.63
19.48125,2075.72
19.58125,2094.17
19.68125,2184.3
19.78125,2071.03
19.88125,2040.82
19.98125,2137.53
20.08125,2146.69
20.18125,2187.37
20.28125,2117.07
20.38125,2130.58
20.48125,2154.94
20.58125,2064.5
20.68125,2085.93
20.78125,2094.44
20.88125,2064.23
20.98125,2116.65
21.08125,2102.57
21.18125,2075.56
21.28125,2041.96
21.38125,2111.48
21.48125,2122.39
21.58125,2005.24
21.68125,2134.82
21.78125,2123.17
21.88125,2054.76
21.98125,1936.23
22.08125,2030.31
22.18125,2182.85
22.28125,2374.84
22.38125,2742.36
22.48125,2934.2
22.58125,2838.08
22.68125,2422.5
22.78125,2126.4
22.88125,1956.1
22.98125,2101.91
23.08125,2039.58
23.18125,2063.8
23.28125,2055.91
23.38125,2031.63
23.48125,2056.37
23.58125,2030.65
23.68125,2034.2
23.78125,2020.3
23.88125,1989.47
23.98125,2066.29
24.08125,2041.99
24.18125,2097.72
24.28125,1976.01
24.38125,1989.3
24.48125,2025.24
24.58125,2056.98
24.68125,2101.98
24.78125,2060.39
24.88125,2045.68
24.98125,2129.54
25.08125,2048.77
25.18125,2087.04
25.28125,2018.72
25.38125,2069.29
25.48125,1980.97
25.58125,1998.18
25.68125,2018.46
25.78125,2009.43
25.88125,2052.49
25.98125,2079.32
26.08125,2057.28
26.18125,2016.36
26.28125,2027.51
26.38125,2049.84
26.48125,2039.4
26.58125,2006.06
26.68125,2061.07
26.78125,2213.85
26.88125,2498.9
26.98125,2806.92
27.08125,2905.36
27.18125,3177.13
27.28125,3706.86
27.38125,4205.13
27.48125,4087.12
27.58125,3218.45
27.68125,2519.61
27.78125,2437.77
27.88125,2737.87
27.98125,2749.1
28.08125,2660.37
28.18125,2394.14
28.28125,2095.67
28.38125,2026.27
28.48125,2002.14
28.58125,1999.03
28.68125,1956.73
28.78125,1999.16
28.88125,2011.09
28.98125,2061.98
29.08125,1937.36
29.18125,1957.56
29.28125,1997.57
29.38125,2075.18
29.48125,2096.78
29.58125,2200.81
29.68125,2231.79
29.78125,2389.93
29.88125,2329.61
29.98125,2245.5
30.08125,2193.53
30.18125,2031.93
30.28125,1977.14
30.38125,2063.22
30.48125,2073.55
30.58125,2010.38
30.68125,2087.56
30.78125,2205.21
30.88125,2281.78
30.98125,3087.75
31.08125,5222.67
31.18125,7102.81
31.28125,6967.79
31.38125,4830.21
31.48125,2995.19
31.58125,2255.06
31.68125,2132.5
31.78125,2112.29
31.88125,2036.48
31.98125,2077.32
32.08125,2010.84
32.18125,1960.04
32.28125,2021.57
32.38125,2045.67
32.48125,2054.33
32.58125,2013.46
32.68125,2051.48
32.78125,2111.37
32.88125,1989.35
32.98125,2006.26
33.08125,2027.22
33.18125,2015.51
33.28125,2053.03
33.38125,1944.12
33.48125,1983.12
33.58125,2057.6
33.68125,2028.18
33.78125,2063.41
33.88125,2045.54
33.98125,1998.18
34.08125,2153.38
34.18125,2007.79
34.28125,2114.15
34.38125,2124.59
34.48125,1976.43
34.58125,2085.08
34.68125,2099.18
34.78125,2039.01
34.88125,2127.93
34.98125,2267.87
35.08125,2377.51
35.18125,2548.92
35.28125,2888.4
35.38125,3680.79
35.48125,7745.23
35.58125,18568.5
35.68125,32771.6
35.78125,37819.1
35.88125,28114.7
35.98125,14161.3
36.08125,6914.36
36.18125,5945.21
36.28125,5855.69
36.38125,5920.98
36.48125,7894.67
36.58125,12550.8
36.68125,15715.8
36.78125,13337.6
36.88125,7809.18
36.98125,3904.74
37.08125,2606.11
37.18125,2323.33
37.28125,2360.9
37.38125,2390.72
37.48125,2543.95
37.58125,3262.67
37.68125,5725.92
37.78125,10473.3
37.88125,14918.8
37.98125,14128.4
38.08125,8849.67
38.18125,4510.57
38.28125,2753.16
38.38125,2371.54
38.48125,2383.4
38.58125,2346.97
38.68125,2342.96
38.78125,2379.6
38.88125,2498.04
38.98125,3538.13
39.08125,6924.61
39.18125,13668
39.28125,19287.5
39.38125,19526.5
39.48125,16396.6
39.58125,12621.4
39.68125,8823.67
39.78125,5208.92
39.88125,3114.31
39.98125,2318.35
40.08125,2218.04
40.18125,2123.93
40.28125,2130.45
40.38125,2090.52
40.48125,2105.05
40.58125,2063.66
40.68125,2042.74
40.78125,2013.32
40.88125,2100.35
40.98125,2021.05
41.08125,2090.24
41.18125,2056.45
41.28125,2013.35
41.38125,2036.49
41.48125,2029.56
41.58125,1931.83
41.68125,1973.89
41.78125,2000.92
41.88125,2033.21
41.98125,2128.03
42.08125,2115.97
42.18125,2216.13
42.28125,2203.42
42.38125,2134.72
42.48125,2071.66
42.58125,2076.47
42.68125,2023.17
42.78125,2122.24
42.88125,2060.17
42.98125,2172.21
43.08125,2357.54
43.18125,2998.93
43.28125,3698.38
43.38125,4161.47
43.48125,3817.81
43.58125,3022.43
43.68125,2482.75
43.78125,2487.62
43.88125,2644.7
43.98125,3647.23
44.08125,7206.86
44.18125,14093.6
44.28125,19458.1
44.38125,17931.1
44.48125,10762.6
44.58125,5264.87
44.68125,3227.47
44.78125,2902.78
44.88125,3529.37
44.98125,5834.14
45.08125,10124.8
45.18125,13382
45.28125,11951.6
45.38125,7513.54
45.48125,3925.67
45.58125,2619.5
45.68125,2433.79
45.78125,2470.58
45.88125,2788.89
45.98125,2902.98
46.08125,2777.98
46.18125,3114.77
46.28125,4108.36
46.38125,4988.49
46.48125,4824.18
46.58125,3661.83
46.68125,2635.33
46.78125,2262.25
46.88125,2369.14
46.98125,2890.62
47.08125,3541.67
47.18125,3848.25
47.28125,3514.39
47.38125,2783.42
47.48125,2578.74
47.58125,3084.8
47.68125,4768.75
47.78125,6827.39
47.88125,7713.66
47.98125,6349.9
48.08125,4653.4
48.18125,3850.75
48.28125,3647.9
48.38125,3080.66
48.48125,2619.42
48.58125,2243.33
48.68125,2163.92
48.78125,2107.34
48.88125,2038.6
48.98125,2048.91
49.08125,2069.07
49.18125,2086.8
49.28125,2094.13
49.38125,2184.25
49.48125,2371.6
49.58125,2670.21
49.68125,2983
49.78125,2821.39
49.88125,2424.12
49.98125,2199.61
50.08125,2055
50.18125,1956.01
50.28125,1969.71
50.38125,2094.56
50.48125,2076.77
50.58125,2407.31
50.68125,3256.51
50.78125,4983.45
50.88125,6714
50.98125,6694.13
51.08125,4983.75
51.18125,3300.71
51.28125,2372.72
51.38125,2096.08
51.48125,2055.8
51.58125,1993.41
51.68125,2004.27
51.78125,1975.49
51.88125,2003.5
51.98125,2026.373
52.08125,1979.66
52.18125,2035.65
52.28125,2033.19
52.38125,2079.33
52.48125,2165.62
52.58125,2493.43
52.68125,2824.85
52.78125,3170.51
52.88125,3379.75
52.98125,3065.06
53.08125,2494.13
53.18125,2126.51
53.28125,1955.93
53.38125,1996.5
53.48125,1971.57
53.58125,1994.42
53.68125,1948.36
53.78125,2006.16
53.88125,2027.47
53.98125,2037.69
54.08125,2051.33
54.18125,2136.32
54.28125,2255.02
54.38125,2247.75
54.48125,2197.31
54.58125,2101.94
54.68125,2095.93
54.78125,2093.51
54.88125,2107.95
54.98125,2026.35
55.08125,2103.59
55.18125,2197.04
55.28125,2511.89
55.38125,3115.03
55.48125,3915.46
55.58125,5039.37
55.68125,5584.2
55.78125,5195.44
55.88125,4038.5
55.98125,2930.09
56.08125,2493.6
56.18125,2632.96
56.28125,3227.32
56.38125,4957.33
56.48125,8303.13
56.58125,11646.1
56.68125,11904.7
56.78125,8779.25
56.88125,5336.76
56.98125,3279.15
57.08125,2507.82
57.18125,2253.02
57.28125,2201.99
57.38125,2151.04
57.48125,2110.1
57.58125,2121.56
57.68125,2177.81
57.78125,2247.26
57.88125,2261.42
57.98125,2208.43
58.08125,2192.55
58.18125,2191.05
58.28125,2558.279
58.38125,3441.88
58.48125,4463.13
58.58125,4902.12
58.68125,4535.51
58.78125,4350.15
58.88125,4211.52
58.98125,3505.86
59.08125,2725.99
59.18125,2417.72
59.28125,2604.9
59.38125,3223.18
59.48125,5634.59
59.58125,10339.8
59.68125,13691.7
59.78125,12138.8
59.88125,7349.28
59.98125,3787.66
60.08125,2609.43
60.18125,2397.89
60.28125,2460.24
60.38125,2823.38
60.48125,3442.45
60.58125,3773.73
60.68125,3703.36
60.78125,3119.32
60.88125,2619.46
60.98125,2295.2
61.08125,2173.14
61.18125,2260.91
61.28125,2280.42
61.38125,2235.8
61.48125,2495.05
61.58125,2816.85
61.68125,3094.06
61.78125,2988.74
61.88125,2610.29
61.98125,2342.42
62.08125,2269.65
62.18125,2509.21
62.28125,2935.87
62.38125,3209.16
62.48125,2970.42
62.58125,2510.76
62.68125,2133.39
62.78125,2085.61
62.88125,2130.85
62.98125,2137.2
63.08125,2199.92
63.18125,2161.33
63.28125,2214.22
63.38125,2252.43
63.48125,2557.1
63.58125,3182.35
63.68125,4064.36
63.78125,4285.53
63.88125,3747.53
63.98125,3119.12
64.08125,3257.04
64.18125,4245.8
64.28125,4936.79
64.38125,4800.01
64.48125,4617.05
64.58125,5571.07
64.68125,6771.06
64.78125,7221.772
64.88125,7214.34
64.98125,9754.9
65.08125,13730.3
65.18125,14353.8
65.28125,10205.2
65.38125,5741.31
65.48125,3386.62
65.58125,2769.4
65.68125,2569.22
65.78125,2634.41
65.88125,3223.63
65.98125,4647.68
66.08125,6026.93
66.18125,5785.89
66.28125,4210.69
66.38125,2892.98
66.48125,2360.32
66.58125,2301.45
66.68125,2193.39
66.78125,2165.1
66.88125,2198.54
66.98125,2220.44
67.08125,2240.67
67.18125,2250.64
67.28125,2335.22
67.38125,2822.96
67.48125,3633.94
67.58125,4277.7
67.68125,4234.39
67.78125,3498.37
67.88125,2808.96
67.98125,2431.69
68.08125,2326.38
68.18125,2197.9
68.28125,2206.19
68.38125,2214.55
68.48125,2425.76
68.58125,2720.68
68.68125,3186.39
68.78125,3325.86
68.88125,3125.95
68.98125,2786.92
69.08125,2947.95
69.18125,3798.16
69.28125,5106.2
69.38125,5573.52
69.48125,4946.04
69.58125,3544.53
69.68125,2725.88
69.78125,2427.07
69.88125,2326.8
69.98125,2314.47
70.08125,2282.09
70.18125,2281.82
70.28125,2241.65
70.38125,2241.91
70.48125,2311.72
70.58125,2278.15
70.68125,2185.43
70.78125,2272.14
70.88125,2316.48
70.98125,2292.86
71.08125,2366.66
71.18125,2444.42
71.28125,2504.86
71.38125,2937.51
71.48125,4535.63
71.58125,7118.89
71.68125,9169.56
71.78125,8292.14
71.88125,5448.38
71.98125,3420.7
72.08125,2577.01
72.18125,2412.67
72.28125,2318.04
72.38125,2281.08
72.48125,2232.79
72.58125,2381.25
72.68125,2263.19
72.78125,2263.86
72.88125,2360.43
72.98125,2394.51
73.08125,2864.71
73.18125,3789.13
73.28125,5511.39
73.38125,6575.47
73.48125,6140.85
73.58125,5613.72
73.68125,6230.69
73.78125,7129.75
73.88125,6560.97
73.98125,4901.4
74.08125,3662.89
74.18125,3405.99
74.28125,4405.84
74.38125,6920.94
74.48125,11447
74.58125,14724.1
74.68125,13669.8
74.78125,9216
74.88125,5233.62
74.98125,3378.14
75.08125,2848.62
75.18125,2640.94
75.28125,2519.59
75.38125,2532.52
75.48125,2607.37
75.58125,2915.24
75.68125,3887.29
75.78125,6355.84
75.88125,9918.82
75.98125,11187.1
76.08125,9186.71
76.18125,5994.48
76.28125,4465.98
76.38125,5124.8
76.48125,6679.14
76.58125,7123.97
76.68125,6283.78
76.78125,4912.45
76.88125,3895.953
76.98125,3583.11
77.08125,3594.43
77.18125,3630.65
77.28125,3609
77.38125,3592.3
77.48125,3487.29
77.58125,3313.67
77.68125,3052.21
77.78125,3030.27
77.88125,3827.94
77.98125,5638.07
78.08125,7845.16
78.18125,8820.36
78.28125,8006.26
78.38125,6147.84
78.48125,4276.54
78.58125,3000.92
78.68125,2451.28
78.78125,2269.79
78.88125,2206.61
78.98125,2191.65
79.08125,2131.84
79.18125,2144.21
79.28125,2302.21
79.38125,2433
79.48125,2856.87
79.58125,3305.12
79.68125,3436.47
79.78125,3146.36
79.88125,2573.09
79.98125,2229.14
80.08125,2132.32
80.18125,2102
80.28125,2084.32
80.38125,2033.96
80.48125,2019.68
80.58125,2046.81
80.68125,2091.43
80.78125,2421.65
80.88125,2979.85
80.98125,3617.77
81.08125,3806.95
81.18125,3245.85
81.28125,2490.99
81.38125,2126.81
81.48125,2076.4
81.58125,2077.89
81.68125,2075.15
81.78125,2195.39
81.88125,2335.27
81.98125,2758.52
82.08125,3004.54
82.18125,2995.35
82.28125,2589.87
82.38125,2316.57
82.48125,2256.58
82.58125,2250.54
82.68125,2356.82
82.78125,2491.62
82.88125,2766.83
82.98125,3302.58
83.08125,3751.56
83.18125,4370.73
83.28125,5388.06
83.38125,6458.75
83.48125,6581.46
83.58125,5301.3
83.68125,3961.72
83.78125,3349.4
83.88125,3439.88
83.98125,4325.49
84.08125,6143.53
84.18125,8011.35
84.28125,8600.21
84.38125,7316.74
84.48125,5742.18
84.58125,4391.63
84.68125,3334.48
84.78125,2696.81
84.88125,2399.82
84.98125,2265.47
85.08125,2263.58
85.18125,2197.17
85.28125,2182.44
85.38125,2179.25
85.48125,2142.17
85.58125,2220.41
85.68125,2147.49
85.78125,2303.48
85.88125,2555.63
85.98125,2916.51
86.08125,3364.38
86.18125,3511.21
86.28125,3964.97
86.38125,4677.13
86.48125,5219.95
86.58125,4551.18
86.68125,3353.29
86.78125,2532.26
86.88125,2167.99
86.98125,2121.8
87.08125,2113.8
87.18125,2153.56
87.28125,2183.84
87.38125,2381.37
87.48125,2699.17
87.58125,2983.43
87.68125,2810.61
87.78125,2400.61
87.88125,2233.16
87.98125,2076.64
88.08125,2026.04
88.18125,2072.36
88.28125,2126.58
88.38125,2063.89
88.48125,2028.3
88.58125,2080.4
88.68125,2169.17
88.78125,2431.09
88.88125,2916.86
88.98125,4084.27
89.08125,5298.64
89.18125,5133.21
89.28125,3924.09
89.38125,2945.11
89.48125,2478.22
89.58125,2298.43
89.68125,2280.41
89.78125,2315.4
89.88125,2302.91
89.98125,2454.68
90.08125,2551.27
90.18125,2594.95
90.28125,2670.25
90.38125,2941.75
90.48125,3118.06
90.58125,3433
90.68125,3487.43
90.78125,3452.48
90.88125,3212
90.98125,3431.46
91.08125,4162.49
91.18125,4479.26
91.28125,4248.89
91.38125,4074.08
91.48125,3653.78
91.58125,3417.51
91.68125,3160.53
91.78125,3124.83
91.88125,3001.6
91.98125,2681.78
92.08125,2550.2
92.18125,2656.14
92.28125,2792.02
92.38125,3089.29
92.48125,3756.63
92.58125,3815.34
92.68125,3471.48
92.78125,3271.15
92.88125,3365.18
92.98125,3258.2
93.08125,3095.12
93.18125,2855.53
93.28125,3013.1
93.38125,3291.29
93.48125,3224.83
93.58125,3055.82
93.68125,3119.43
93.78125,3599.77
93.88125,3999.91
93.98125,3873.78
94.08125,3406.31
94.18125,2901.74
94.28125,2714.86
94.38125,2791.04
94.48125,2924.82
94.58125,3067.66
94.68125,3190.58
94.78125,3563.9
94.88125,4419.73
94.98125,5283.42
95.08125,5283.78
95.18125,4803.5
95.28125,4331.55
95.38125,3870.77
95.48125,3472.13
95.58125,3132.63
95.68125,2754.35
95.78125,2617.98
95.88125,2517.34
95.98125,2550.29
96.08125,2785.15
96.18125,2985.26
96.28125,2991.29
96.38125,2761.23
96.48125,2632.04
96.58125,2575.388
96.68125,2558.18
96.78125,2533.59
96.88125,2720.05
96.98125,2803.01
97.08125,3107.05
97.18125,3962.71
97.28125,5238.37
97.38125,6429.47
97.48125,6569.87
97.58125,7336.92
97.68125,9453.29
97.78125,12188.4
97.88125,12906.2
97.98125,10928.2
98.08125,8277.72
98.18125,6258.6
98.28125,4883.28
98.38125,3706.45
98.48125,3186.34
98.58125,2933.4
98.68125,2835.71
98.78125,2854.11
98.88125,2986.11
98.98125,3169.2
99.08125,3326.91
99.18125,3687.33
99.28125,4399.4
99.38125,5524.13
99.48125,6380.37
99.58125,7724.85
99.68125,9318.99
99.78125,10181.8
99.88125,8676.71
99.98125,6170.16
100.081,4345.34
100.181,3465.45
100.281,3151.18
100.381,3092.98
100.481,2929.73
100.581,2876.79
100.681,2817.5
100.781,2673.79
100.881,2838.27
100.981,2956.89
101.081,3102.57
101.181,3296.42
101.281,3225.7
101.381,2997.56
101.481,2888.98
101.581,2734.96
101.681,2739.67
101.781,2815.91
101.881,3006.66
101.981,3384.78
102.081,3839.19
102.181,4214.86
102.281,4355.65
102.381,4451.7
102.481,4669.51
102.581,4390.73
102.681,3603.92
102.781,3106.23
102.881,2855.14
102.981,2696.93
103.081,2601.05
103.181,2574.9
103.281,2701.42
103.381,2766.95
103.481,2784.76
103.581,3076.78
103.681,3420.84
103.781,4229.11
103.881,5895.598
103.981,7667.93
104.081,8274.5
104.181,7259
104.281,6501.64
104.381,6324.77
104.481,6232.37
104.581,6554.46
104.681,7091.36
104.781,7032.76
104.881,5912.86
104.981,4417.16
105.081,3679.48
105.181,3460.15
105.281,3965.39
105.381,4948.37
105.481,6848.32
105.581,8439.12
105.681,8035.82
105.781,6041.6
105.881,4407.86
105.981,3587.49
106.081,3361.08
106.181,3545.16
106.281,3910.42
106.381,4301.68
106.481,4478.44
106.581,3917.3
106.681,3485.63
106.781,3244
106.881,3397.05
106.981,3961.39
107.081,4537.38
107.181,5067.5
107.281,5264.78
107.381,5284.59
107.481,5731.53
107.581,6249.48
107.681,6590.25
107.781,6667.01
107.881,6073.13
107.981,5616.04
108.081,5025.8
108.181,4414.9
108.281,4290.21
108.381,4333.06
108.481,4026.31
108.581,3756.77
108.681,3499.9
108.781,3446.14
108.881,3596.46
108.981,4004.68
109.081,4355.51
109.181,4435.71
109.281,4244.94
109.381,4008.83
109.481,3756.05
109.581,3670.34
109.681,3839.27
109.781,4137.05
109.881,4003.01
109.981,3729.7
110.081,4090.54
110.181,5108.08
110.281,6661.64
110.381,7584.9
110.481,6842.37
110.581,5237.09
110.681,3855.55
110.781,3240.52
110.881,2924.64
110.981,2798.85
111.081,2638.1
111.181,2661.42
111.281,2625.69
111.381,2624.25
111.481,2650.19
111.581,2695.6
111.681,2715.07
111.781,2721.59
111.881,2886.4
111.981,3065.64
112.081,3336.13
112.181,3461.14
112.281,3344.83
112.381,3136.66
112.481,3177.16
112.581,3362.86
112.681,3950.61
112.781,4616.02
112.881,4921.77
112.981,4814.43
113.081,4477.49
113.181,4108.54
113.281,3684.53
113.381,3436.33
113.481,3233.28
113.581,2916.24
113.681,2819.7
113.781,2770.84
113.881,2798.99
113.981,2956.15
114.081,3277.31
114.181,3499.21
114.281,3648.24
114.381,3509.38
114.481,3204.39
114.581,2961.14
114.681,2800.12
114.781,2682.66
114.881,2690.06
114.981,2673.56
115.081,2805.03
115.181,2980.55
115.281,3245.97
115.381,3980.24
115.481,5416.82
115.581,6672.4
115.681,7073.86
115.781,5878.13
115.881,4434.9
115.981,3576.86
116.081,3156.6
116.181,3037.45
116.281,3133.06
116.381,3351.11
116.481,3402.38
116.581,3405.28
116.681,3479.51
116.781,3651.34
116.881,3922.34
116.981,3973.97
117.081,3916.19
117.181,3654.52
117.281,3529.32
117.381,3451.76
117.481,3580.56
117.581,3942.2
117.681,4542.73
117.781,5631.76
117.881,6878.08
117.981,7408.32
118.081,7058.87
118.181,6008.12
118.281,4912.73
118.381,4495.05
118.481,4345.41
118.581,4378.29
118.681,4292.62
118.781,3977.64
118.881,3636.59
118.981,3666.37
119.081,3882.72
119.181,4288.48
119.281,5154.23
119.381,6408.61
119.481,7951.24
119.581,9143.44
119.681,8975.02
119.781,7778.11
119.881,6240.52
119.981,5226.56
120.081,4764.66
120.181,4261.61
120.281,3957.82
120.381,3857.4
120.481,3898.71
120.581,3607.9
120.681,3440.97
120.781,3198.96
120.881,3015.02
120.981,2956.58
121.081,2988.72
121.181,2885.07
121.281,2901.14
121.381,2897.87
121.481,2887.49
121.581,3034.18
121.681,3207.83
121.781,3393.24
121.881,3692.08
121.981,4438.01
122.081,5216.35
122.181,5978.81
122.281,5863.72
122.381,4965.8
122.481,4103.44
122.581,3497.51
122.681,3197.65
122.781,3053.24
122.881,2972.88
122.981,2998.44
123.081,2941.54
123.181,3032.56
123.281,2878.67
123.381,3009.78
123.481,3122.02
123.581,3190.24
123.681,3363.43
123.781,3357.75
123.881,3497.78
123.981,3539.79
124.081,3608.81
124.181,3539.07
124.281,3559.85
124.381,3682.77
124.481,3861.72
124.581,4165.31
124.681,4482.27
124.781,4962.53
124.881,5801.63
124.981,6239.08
125.081,6427.4
125.181,5720.42
125.281,4998.32
125.381,4752.46
125.481,4821.22
125.581,5331.64
125.681,6514.27
125.781,8207.89
125.881,9179.7
125.981,8798.51
126.081,7357.42
126.181,5833.29
126.281,4715.27
126.381,4079.59
126.481,3621.65
126.581,3368.39
126.681,3139.32
126.781,3103.35
126.881,3005.68
126.981,2943.26
127.081,2903.17
127.181,2927.4
127.281,2890.61
127.381,2803.84
127.481,2933.57
127.581,2887.29
127.681,2851.19
127.781,2778.31
127.881,2922.62
127.981,2864.92
128.081,2893.88
128.181,2888.81
128.281,2740.1
128.381,2870.52
128.481,2894.83
128.581,2807
128.681,2823.99
128.781,2946.45
128.881,3039.7
128.981,3126.19
129.081,3288.2
129.181,3500.43
129.281,3531.27
129.381,3354.51
129.481,3226.69
129.581,3207.37
129.681,3173.1
129.781,3321.51
129.881,3413.68
129.981,3756.67
130.081,4112.34
130.181,4558.31
130.281,4964.3
130.381,5392.98
130.481,6267.12
130.581,7514.01
130.681,8374.83
130.781,8303.75
130.881,7515.29
130.981,6800.66
131.081,5892.29
131.181,5079.97
131.281,4423.46
131.381,3882.43
131.481,3643.53
131.581,3336.84
131.681,3203.21
131.781,3069.81
131.881,3091.44
131.981,3199.63
132.081,3379.54
132.181,3436.04
132.281,3629.53
132.381,3642.44
132.481,3577.47
132.581,3559.89
132.681,3497.77
132.781,3639.36
132.881,3660.14
132.981,3606.97
133.081,3467.93
133.181,3356.12
133.281,3302.71
133.381,3306.51
133.481,3276.48
133.581,3494.58
133.681,3574.57
133.781,3755.39
133.881,4265.27
133.981,4844.15
134.081,5538.31
134.181,5986
134.281,6090.77
134.381,6115.22
134.481,5894.32
134.581,6244.58
134.681,6832.95
134.781,6796.62
134.881,6058.28
134.981,5190.64
135.081,4468.87
135.181,3972.07
135.281,3780.08
135.381,3528.52
135.481,3631.92
135.581,3726.6
135.681,3772.63
135.781,3606.64
135.881,3498.63
135.981,3342.67
136.081,3158.63
136.181,3119.29
136.281,3078.72
136.381,3014.38
136.481,3203.27
136.581,3353.73
136.681,3553.11
136.781,3703.9
136.881,3866.66
136.981,3856.69
137.081,3588.64
137.181,3397.73
137.281,3299.38
137.381,3261.11
137.481,3424.49
137.581,3458.91
137.681,3620.99
137.781,3824.15
137.881,4110.25
137.981,4233.55
138.081,4173.59
138.181,4065.42
138.281,4003.03
138.381,3821.1
138.481,3902.98
138.581,4061.06
138.681,3976.73
138.781,3822.44
138.881,3647.63
138.981,3586.55
139.081,3848.2
139.181,3854.1
139.281,3914.3
139.381,3988.55
139.481,3660.81
139.581,3549.94
139.681,3412.32
139.781,3179.29
139.881,3023.14
139.981,2989.82
140.081,3047.38
140.181,3014.81
140.281,2914.6
140.381,2977
140.481,2845.38
140.581,2997.4
140.681,3004.96
140.781,2919.15
140.881,2893.44
140.981,2968.64
141.081,2892.92
141.181,3021.72
141.281,2882.3
141.381,2905.96
141.481,3039.18
141.581,3081.69
141.681,3014.31
141.781,2945.93
141.881,3001.47
141.981,3048.57
142.081,2987.68
142.181,3008.68
142.281,3033.44
142.381,3034.57
142.481,3041.28
142.581,3014.92
142.681,3149.05
142.781,3424.14
142.881,3410.45
142.981,3501.61
143.081,3492.87
143.181,3396.05
143.281,3364.96
143.381,3339.78
143.481,3445.83
143.581,3575.61
143.681,3743.49
143.781,3968.895
143.881,4311.53
143.981,4904.57
144.081,5762.53
144.181,6235.17
144.281,6196.3
144.381,5771.32
144.481,5070.06
144.581,4361.41
144.681,3977.81
144.781,3756.78
144.881,3715.69
144.981,3615.83
145.081,3557.6
145.181,3524.77
145.281,3383.11
145.381,3226.93
145.481,3261.7
145.581,3134.18
145.681,3084.28
145.781,3146.22
145.881,3078.53
145.981,3172.53
146.081,3041.15
146.181,2998.23
146.281,3000.55
146.381,3014.66
146.481,3214.95
146.581,3064.76
146.681,3253.18
146.781,3359.51
146.881,3484.07
146.981,3602.07
147.081,3590.48
147.181,3516.33
147.281,3881.77
147.381,3970.98
147.481,4212.99
147.581,3989.47
147.681,4158.12
147.781,3894.07
147.881,3939.91
147.981,3904.78
148.081,3968.64
148.181,4033.77
148.281,4024.23
148.381,4033.55
148.481,3880.41
148.581,4046.72
148.681,3859.69
148.781,4038.25
148.881,4219.13
148.981,4519.83
149.081,4813.93
149.181,4900.38
149.281,5098.22
149.381,4909.8
149.481,4381.33
149.581,4253.31
149.681,4239.97