File: data/xrd_icdd_PDF/00-064-0239 (PD3).csv
20.0154,121.0002
20.0664,101.1862
20.1174,110.9769
20.1684,108.2165
20.2194,118.7497
20.2704,89.0025
20.3214,97.6592
20.3724,116.0158
20.4234,111.262
20.4744,116.9374
20.5254,114.9203
20.5764,96.7338
20.6274,123.7015
20.6784,108.8773
20.7294,101.6341
20.7804,113.876
20.8314,95.8107
20.8824,102.5684
20.9334,95.609
20.9844,108.6911
21.0354,92.2148
21.0864,87.3593
21.1374,90.3806
21.1884,112.8411
21.2394,110.7866
21.2904,103.0649
21.3414,101.2208
21.3924,102.3861
21.4434,100.0679
21.4944,103.026
21.5454,94.2156
21.5964,103.208
21.6474,110.4317
21.6984,104.1375
21.7494,94.3716
21.8004,103.5638
21.8514,102.1184
21.9024,105.8418
21.9534,115.6303
22.0044,110.5215
22.0554,92.7391
22.1064,114.4968
22.1574,139.9763
22.2084,129.9738
22.2594,111.5551
22.3104,100.0034
22.3614,91.7636
22.4124,94.7717
22.4634,91.8268
22.5144,84.9695
22.5654,92.4865
22.6164,87.1344
22.6674,98.9586
22.7184,91.4893
22.7694,86.0103
22.8204,86.3543
22.8714,102.9874
22.9224,86.0408
22.9734,89.9824
23.0244,92.3653
23.0754,73.434
23.1264,101.5679
23.1774,69.7043
23.2284,83.7917
23.2794,90.8803
23.3304,76.0563
23.3814,86.373
23.4324,82.4139
23.4834,89.7765
23.5344,88.7696
23.5854,83.2783
23.6364,72.3242
23.6874,89.0985
23.7384,69.8961
23.7894,100.7493
23.8404,89.4425
23.8914,67.0882
23.9424,93.0321
23.9934,86.1669
24.0444,82.6257
24.0954,74.3414
24.1464,83.211
24.1974,80.2514
24.2484,84.6093
24.2994,89.2698
24.3504,82.8886
24.4014,87.0799
24.4524,82.5426
24.5034,71.5338
24.5544,88.7754
24.6054,62.6479
24.6564,73.8631
24.7074,74.0044
24.7584,72.3297
24.8094,71.6428
24.8604,78.9957
24.9114,79.7161
24.9624,79.5518
25.0134,75.2082
25.0644,78.8129
25.1154,71.4869
25.1664,65.1124
25.2174,71.8652
25.2684,76.0286
25.3194,70.8474
25.3704,73.3234
25.4214,68.479
25.4724,62.8193
25.5234,82.2222
25.5744,74.4053
25.6254,70.9961
25.6764,76.0595
25.7274,67.0494
25.7784,81.719
25.8294,72.1791
25.8804,75.486
25.9314,67.946
25.9824,79.2956
26.0334,76.9958
26.0844,80.9872
26.1354,58.1171
26.1864,71.276
26.2374,65.3492
26.2884,67.8814
26.3394,59.8513
26.3904,65.9545
26.4414,67.5968
26.4924,64.9897
26.5434,61.0036
26.5944,56.802
26.6454,65.5273
26.6964,65.2189
26.7474,67.6879
26.7984,69.6776
26.8494,71.6362
26.9004,59.0165
26.9514,53.8411
27.0024,56.6936
27.0534,55.7681
27.1044,67.6963
27.1554,77.7924
27.2064,67.4541
27.2574,68.6804
27.3084,69.9383
27.3594,71.5321
27.4104,61.8776
27.4614,68.2666
27.5124,62.9671
27.5634,51.9695
27.6144,66.5577
27.6654,71.1213
27.7164,75.1383
27.7674,69.9758
27.8184,65.2747
27.8694,51.2342
27.9204,62.8331
27.9714,54.1138
28.0224,70.6973
28.0734,55.2386
28.1244,51.8299
28.1754,63.8907
28.2264,67.0667
28.2774,54.3847
28.3284,54.8945
28.3794,71.0089
28.4304,58.7104
28.4814,49.8157
28.5324,62.4672
28.5834,40.339
28.6344,42.7183
28.6854,72.1844
28.7364,42.5054
28.7874,46.7601
28.8384,44.431
28.8894,67.0419
28.9404,55.7847
28.9914,69.3065
29.0424,76.9842
29.0934,57.7405
29.1444,47.9974
29.1954,68.0169
29.2464,55.385
29.2974,66.6257
29.3484,58.4597
29.3994,57.5929
29.4504,57.9488
29.5014,57.6647
29.5524,60.076
29.6034,86.6538
29.6544,107.7006
29.7054,135.0439
29.7564,131.1944
29.8074,95.3906
29.8584,75.9214
29.9094,77.7734
29.9604,50.97
30.0114,62.7037
30.0624,54.0032
30.1134,53.1113
30.1644,56.4792
30.2154,53.1028
30.2664,66.8124
30.3174,55.5926
30.3684,50.1739
30.4194,58.4295
30.4704,50.0033
30.5214,51.4237
30.5724,57.8085
30.6234,44.404
30.6744,47.1662
30.7254,57.8817
30.7764,42.2557
30.8274,49.0771
30.8784,52.8759
30.9294,43.7408
30.9804,48.4126
31.0314,69.1713
31.0824,50.7371
31.1334,60.0981
31.1844,51.1918
31.2354,53.3842
31.2864,51.1827
31.3374,57.6004
31.3884,51.5618
31.4394,50.776
31.4904,47.3531
31.5414,52.4328
31.5924,51.3596
31.6434,43.8239
31.6944,47.3461
31.7454,51.2184
31.7964,49.891
31.8474,51.098
31.8984,53.5429
31.9494,52.837
32.0004,52.0992
32.0514,48.3441
32.1024,52.4189
32.1534,49.0325
32.2044,45.5748
32.2554,47.3169
32.3064,55.4226
32.3574,47.1719
32.4084,50.0317
32.4594,55.6441
32.5104,51.9881
32.5614,50.5104
32.6124,39.7604
32.6634,46.3063
32.7144,45.5298
32.7654,50.2598
32.8164,48.0083
32.8674,53.317
32.9184,43.7466
32.9694,44.1668
33.0204,43.7803
33.0714,46.3055
33.1224,43.8874
33.1734,45.1768
33.2244,54.271
33.2754,51.7159
33.3264,43.8837
33.3774,41.9368
33.4284,43.989
33.4794,47.9402
33.5304,37.9492
33.5814,50.6597
33.6324,48.158
33.6834,49.4321
33.7344,51.8949
33.7854,43.0644
33.8364,43.9976
33.8874,45.6033
33.9384,39.1126
33.9894,64.9752
34.0404,52.7431
34.0914,48.3625
34.1424,48.5858
34.1934,52.4066
34.2444,59.6126
34.2954,54.6432
34.3464,48.4717
34.3974,50.8478
34.4484,54.322
34.4994,51.686
34.5504,39.8594
34.6014,42.943
34.6524,36.998
34.7034,54.0709
34.7544,44.9975
34.8054,43.0606
34.8564,41.3312
34.9074,52.9804
34.9584,50.8103
35.0094,42.8638
35.0604,55.0895
35.1114,59.242
35.1624,55.4481
35.2134,49.6427
35.2644,58.4685
35.3154,56.2437
35.3664,58.59
35.4174,55.8792
35.4684,60.3147
35.5194,63.2394
35.5704,85.0406
35.6214,101.0211
35.6724,144.8411
35.7234,325.463
35.7744,433.6989
35.8254,384.8863
35.8764,268.765
35.9274,140.618
35.9784,106.6652
36.0294,79.7597
36.0804,70.6314
36.1314,56.4803
36.1824,57.4106
36.2334,55.0439
36.2844,44.2553
36.3354,48.4108
36.3864,39.0601
36.4374,45.5571
36.4884,39.9336
36.5394,61.1109
36.5904,44.6144
36.6414,40.2373
36.6924,33.9981
36.7434,40.0001
36.7944,33.8467
36.8454,55.1703
36.8964,52.3707
36.9474,45.789
36.9984,54.8722
37.0494,43.3787
37.1004,47.7216
37.1514,44.3341
37.2024,42.6193
37.2534,45.8031
37.3044,42.7117
37.3554,39.7513
37.4064,42.7073
37.4574,46.1728
37.5084,44.8911
37.5594,50.6748
37.6104,44.7621
37.6614,37.722
37.7124,39.1371
37.7634,35.7931
37.8144,42.9177
37.8654,43.8462
37.9164,38.5779
37.9674,44.4308
38.0184,49.2556
38.0694,41.7417
38.1204,40.2069
38.1714,38.1016
38.2224,40.5106
38.2734,46.2276
38.3244,46.5104
38.3754,49.3076
38.4264,44.3045
38.4774,49.2338
38.5284,47.2591
38.5794,64.5346
38.6304,52.9971
38.6814,50.9972
38.7324,52.8383
38.7834,39.3797
38.8344,41.629
38.8854,47.9284
38.9364,51.4665
38.9874,44.6991
39.0384,37.6678
39.0894,51.2261
39.1404,62.072
39.1914,63.3547
39.2424,75.389
39.2934,72.8813
39.3444,77.9474
39.3954,66.2645
39.4464,61.7646
39.4974,58.7892
39.5484,73.8479
39.5994,92.2834
39.6504,80.5971
39.7014,87.0027
39.7524,52.722
39.8034,72.6627
39.8544,70.3884
39.9054,62.9305
39.9564,47.9974
40.0074,68.404
40.0584,58.33
40.1094,70.3236
40.1604,68.9486
40.2114,76.7282
40.2624,70.2189
40.3134,81.9384
40.3644,101.0383
40.4154,103.9249
40.4664,83.5201
40.5174,115.7288
40.5684,102.1015
40.6194,91.4111
40.6704,117.8261
40.7214,114.993
40.7724,151.5405
40.8234,169.4416
40.8744,292.5629
40.9254,459.3035
40.9764,908.3275
41.0274,1876.603
41.0784,2248.492
41.1294,1681.729
41.1804,1350.328
41.2314,710.0147
41.2824,372.8485
41.3334,223.6587
41.3844,158.2472
41.4354,132.6348
41.4864,115.9231
41.5374,102.8799
41.5884,88.4875
41.6394,84.9918
41.6904,98.7846
41.7414,115.1055
41.7924,97.862
41.8434,119.6223
41.8944,121.7571
41.9454,157.6529
41.9964,222.8279
42.0474,424.998
42.0984,651.7384
42.1494,571.7083
42.2004,533.5602
42.2514,339.5071
42.3024,205.8377
42.3534,136.7934
42.4044,117.2292
42.4554,124.8316
42.5064,136.859
42.5574,139.0047
42.6084,168.7716
42.6594,214.1899
42.7104,347.9153
42.7614,494.0689
42.8124,833.2687
42.8634,1127.136
42.9144,1083.908
42.9654,812.3188
43.0164,569.6429
43.0674,325.9937
43.1184,177.1478
43.1694,118.5596
43.2204,115.4208
43.2714,95.7232
43.3224,79.1819
43.3734,94.9316
43.4244,80.2481
43.4754,73.4077
43.5264,66.9963
43.5774,80.3746
43.6284,80.0026
43.6794,81.4412
43.7304,92.8132
43.7814,93.6329
43.8324,99.0831
43.8834,97.5816
43.9344,82.1631
43.9854,79.267
44.0364,78.0206
44.0874,85.6466
44.1384,92.3696
44.1894,95.5443
44.2404,102.1
44.2914,123.0107
44.3424,157.4061
44.3934,303.1884
44.4444,536.6383
44.4954,781.7556
44.5464,686.3777
44.5974,627.5949
44.6484,448.5311
44.6994,331.1067
44.7504,248.1513
44.8014,166.7445
44.8524,131.9631
44.9034,116.0063
44.9544,134.4823
45.0054,106.3437
45.0564,130.1922
45.1074,162.9762
45.1584,216.8262
45.2094,245.9927
45.2604,296.8996
45.3114,246.297
45.3624,213.7703
45.4134,182.9307
45.4644,139.3158
45.5154,178.0206
45.5664,185.1329
45.6174,244.2873
45.6684,361.2606
45.7194,513.4049
45.7704,1031.878
45.8214,1577.15
45.8724,1451.251
45.9234,1203.333
45.9744,997.0843
46.0254,608.575
46.0764,342.7006
46.1274,210.3747
46.1784,156.9083
46.2294,134.0025
46.2804,97.2619
46.3314,82.7412
46.3824,70.2223
46.4334,79.3937
46.4844,79.8284
46.5354,69.8085
46.5864,70.9327
46.6374,57.0536
46.6884,50.1173
46.7394,54.3177
46.7904,51.3604
46.8414,50.1104
46.8924,38.3747
46.9434,41.1009
46.9944,55.9969
47.0454,40.364
47.0964,36.5212
47.1474,39.5473
47.1984,44.9817
47.2494,38.2556
47.3004,40.0756
47.3514,44.3449
47.4024,46.66
47.4534,42.2352
47.5044,50.2456
47.5554,36.0286
47.6064,42.0809
47.6574,30.4727
47.7084,46.433
47.7594,38.3481
47.8104,35.247
47.8614,41.4056
47.9124,32.1711
47.9634,39.4467
48.0144,46.7455
48.0654,37.4419
48.1164,45.7578
48.1674,39.2215
48.2184,46.6903
48.2694,33.7059
48.3204,45.3938
48.3714,35.2638
48.4224,42.481
48.4734,48.611
48.5244,41.0992
48.5754,37.1565
48.6264,41.5554
48.6774,38.4779
48.7284,47.2698
48.7794,49.0227
48.8304,50.8663
48.8814,49.3347
48.9324,40.2193
48.9834,44.7416
49.0344,43.0836
49.0854,48.4526
49.1364,49.9299
49.1874,44.227
49.2384,57.4958
49.2894,48.2452
49.3404,53.565
49.3914,66.3985
49.4424,80.1972
49.4934,125.2636
49.5444,159.4416
49.5954,224.7438
49.6464,345.8707
49.6974,448.1424
49.7484,362.5791
49.7994,285.0814
49.8504,221.5892
49.9014,142.0139
49.9524,107.4258
50.0034,83.1294
50.0544,65.9398
50.1054,58.39
50.1564,57.8439
50.2074,53.8868
50.2584,44.839
50.3094,58.7264
50.3604,51.6352
50.4114,40.5358
50.4624,49.2201
50.5134,55.0015
50.5644,39.5346
50.6154,43.6952
50.6664,56.6329
50.7174,51.3523
50.7684,43.6103
50.8194,67.4612
50.8704,75.5332
50.9214,95.6058
50.9724,124.2306
51.0234,174.9328
51.0744,258.253
51.1254,374.2243
51.1764,372.9029
51.2274,351.5538
51.2784,321.8845
51.3294,223.3545
51.3804,171.551
51.4314,159.5892
51.4824,119.1934
51.5334,113.8557
51.5844,129.0774
51.6354,147.1744
51.6864,236.0706
51.7374,362.0191
51.7884,535.9408
51.8394,583.6241
51.8904,426.4382
51.9414,361.4792
51.9924,253.0158
52.0434,171.5992
52.0944,109.9759
52.1454,78.8301
52.1964,63.4216
52.2474,59.5269
52.2984,48.6684
52.3494,54.4796
52.4004,43.7394
52.4514,50.5963
52.5024,45.2195
52.5534,44.0669
52.6044,35.7253
52.6554,46.008
52.7064,41.4243
52.7574,29.7019
52.8084,47.0973
52.8594,42.2897
52.9104,41.5656
52.9614,29.2591
53.0124,36.2464
53.0634,33.2426
53.1144,36.6375
53.1654,34.9122
53.2164,37.7771
53.2674,28.9984
53.3184,35.62
53.3694,27.8082
53.4204,41.2145
53.4714,30.0348
53.5224,33.323
53.5734,28.8924
53.6244,31.1107
53.6754,27.7408
53.7264,33.5672
53.7774,37.2516
53.8284,34.3712
53.8794,31.751
53.9304,35.2802
53.9814,38.7679
54.0324,40.5873
54.0834,36.1303
54.1344,49.9398
54.1854,46.6479
54.2364,72.996
54.2874,79.8273
54.3384,148.0394
54.3894,228.4219
54.4404,180.6056
54.4914,169.3414
54.5424,163.9924
54.5934,123.595
54.6444,83.8288
54.6954,64.9964
54.7464,39.7695
54.7974,33.406
54.8484,35.989
54.8994,31.8223
54.9504,33.5485
55.0014,38.0133
55.0524,47.2266
55.1034,39.32
55.1544,34.1547
55.2054,29.2923
55.2564,30.7322
55.3074,30.2615
55.3584,26.0429
55.4094,34.0821
55.4604,47.4739
55.5114,33.1656
55.5624,32.0055
55.6134,39.6674
55.6644,30.1491
55.7154,23.8107
55.7664,25.3486
55.8174,29.0914
55.8684,31.068
55.9194,26.5464
55.9704,34.9611
56.0214,28.3444
56.0724,32.7064
56.1234,25.9808
56.1744,28.7479
56.2254,30.2174
56.2764,30.2918
56.3274,37.7709
56.3784,22.9556
56.4294,43.8683
56.4804,34.877
56.5314,26.3417
56.5824,34.834
56.6334,20.9427
56.6844,22.0703
56.7354,26.7258
56.7864,29.7696
56.8374,24.4585
56.8884,31.232
56.9394,32.2136
56.9904,37.1038
57.0414,27.1063
57.0924,32.5127
57.1434,39.7321
57.1944,35.929
57.2454,47.9974
57.2964,43.0155
57.3474,41.4061
57.3984,34.069
57.4494,26.4067
57.5004,23.7124
57.5514,36.6577
57.6024,37.1906
57.6534,40.9977
57.7044,55.5323
57.7554,56.6286
57.8064,67.8126
57.8574,79.4737
57.9084,83.3191
57.9594,77.6138
58.0104,68.3807
58.0614,53.669
58.1124,54.2441
58.1634,44.5396
58.2144,53.695
58.2654,59.3834
58.3164,69.8491
58.3674,70.1907
58.4184,76.513
58.4694,60.5182
58.5204,57.8631
58.5714,44.6263
58.6224,39.9978
58.6734,38.1385
58.7244,32.456
58.7754,43.8885
58.8264,26.891
58.8774,32.5153
58.9284,35.192
58.9794,37.7972
59.0304,44.8769
59.0814,64.5556
59.1324,77.5776
59.1834,63.3049
59.2344,55.2622
59.2854,59.5288
59.3364,36.1384
59.3874,45.9975
59.4384,36.0062
59.4894,40.9977
59.5404,38.7589
59.5914,40.8859
59.6424,46.7501
59.6934,48.2567
59.7444,64.8856
59.7954,54.4316
59.8464,46.7743
59.8974,49.9302
59.9484,39.8498
59.9994,40.1026
60.0504,29.932
60.1014,28.3324
60.1524,24.7912
60.2034,37.8422
60.2544,32.2059
60.3054,26.6868
60.3564,24.0053
60.4074,29.2119
60.4584,28.9644
60.5094,28.7749
60.5604,31.3767
60.6114,23.8462
60.6624,22.5248
60.7134,25.7239
60.7644,27.3469
60.8154,28.5997
60.8664,35.1069
60.9174,30.1482
60.9684,35.41
61.0194,23.9987
61.0704,31.7043
61.1214,27.3364
61.1724,25.4858
61.2234,38.3314
61.2744,19.8716
61.3254,32.9284
61.3764,44.6788
61.4274,45.439
61.4784,35.8579
61.5294,42.4216
61.5804,61.5344
61.6314,62.1979
61.6824,55.912
61.7334,64.6294
61.7844,54.4481
61.8354,44.5064
61.8864,39.3333
61.9374,32.4321
61.9884,30.3646
62.0394,33.1569
62.0904,24.1939
62.1414,24.8125
62.1924,22.5356
62.2434,37.8456
62.2944,28.7293
62.3454,29.9197
62.3964,24.437
62.4474,26.9993
62.4984,24.4681
62.5494,25.313
62.6004,23.5966
62.6514,30.3215
62.7024,25.8521
62.7534,22.7423
62.8044,34.0226
62.8554,23.3162
62.9064,34.8659
62.9574,27.2906
63.0084,28.3033
63.0594,39.0068
63.1104,35.2121
63.1614,36.6536
63.2124,39.4852
63.2634,39.2358
63.3144,39.9945
63.3654,36.0559
63.4164,42.0097
63.4674,33.551
63.5184,43.2241
63.5694,24.9163
63.6204,31.9982
63.6714,25.2079
63.7224,32.5225
63.7734,28.6698
63.8244,29.6209
63.8754,33.9212
63.9264,28.5108
63.9774,22.8789
64.0284,25.8093
64.0794,26.6242
64.1304,36.0062
64.1814,32.9766
64.2324,26.8709
64.2834,40.9087
64.3344,41.4491
64.3854,35.1788
64.4364,37.6967
64.4874,30.7664
64.5384,32.7557
64.5894,43.8943
64.6404,49.9004
64.6914,75.5039
64.7424,73.0975
64.7934,69.0543
64.8444,58.1778
64.8954,67.6245
64.9464,61.9987
64.9974,60.1442
65.0484,49.6929
65.0994,55.83
65.1504,35.2457
65.2014,45.911
65.2524,42.9638
65.3034,40.785
65.3544,35.3861
65.4054,52.8869
65.4564,46.6072
65.5074,43.1893
65.5584,51.5681
65.6094,50.4584
65.6604,64.5732
65.7114,93.6107
65.7624,109.5106
65.8134,108.8884
65.8644,103.0538
65.9154,91.9644
65.9664,74.8951
66.0174,66.7387
66.0684,55.9839
66.1194,53.8429
66.1704,45.5338
66.2214,38.146
66.2724,42.8815
66.3234,34.862
66.3744,23.805
66.4254,35.8076
66.4764,27.5425
66.5274,29.5355
66.5784,38.624
66.6294,33.3784
66.6804,26.4412
66.7314,36.8628
66.7824,24.7701
66.8334,31.1811
66.8844,39.9099
66.9354,39.6137
66.9864,41.1738
67.0374,49.5885
67.0884,53.8265
67.1394,39.2448
67.1904,33.045
67.2414,32.0553
67.2924,36.1852
67.3434,30.2938
67.3944,33.2271
67.4454,33.9608
67.4964,34.442
67.5474,30.3058
67.5984,28.1659
67.6494,33.5938
67.7004,25.2832
67.7514,24.8993
67.8024,25.87
67.8534,26.6238
67.9044,35.7297
67.9554,27.7756
68.0064,25.031
68.0574,29.4715
68.1084,33.0471
68.1594,17.9129
68.2104,29.0774
68.2614,36.7537
68.3124,22.4217
68.3634,18.1951
68.4144,20.761
68.4654,25.2456
68.5164,23.6421
68.5674,25.3144
68.6184,20.9941
68.6694,29.6093
68.7204,24.9912
68.7714,24.869
68.8224,23.6479
68.8734,27.1869
68.9244,31.0511
68.9754,27.0047
69.0264,34.6703
69.0774,24.8128
69.1284,32.7502
69.1794,37.94
69.2304,29.2695
69.2814,41.7065
69.3324,45.3542
69.3834,52.4415
69.4344,29.6221
69.4854,39.6202
69.5364,41.2845
69.5874,42.2766
69.6384,34.9232
69.6894,36.416
69.7404,35.5431
69.7914,31.6502
69.8424,33.7244
69.8934,31.2387
69.9444,37.262
69.9954,24.9929
70.0464,20.9677
70.0974,33.1093
70.1484,36.1516
70.1994,43.9508
70.2504,47.0917
70.3014,56.4127
70.3524,46.9621
70.4034,53.8529
70.4544,68.5958
70.5054,55.695
70.5564,44.185
70.6074,54.6753
70.6584,50.9343
70.7094,36.7018
70.7604,40.286
70.8114,29.005
70.8624,36.3611
70.9134,28.0653
70.9644,31.4587
71.0154,36.4887
71.0664,19.7724
71.1174,40.8163
71.1684,24.0159
71.2194,21.5149
71.2704,22.6375
71.3214,25.1482
71.3724,29.2222
71.4234,24.4995
71.4744,26.9031
71.5254,39.478
71.5764,39.7947
71.6274,28.8075
71.6784,29.0709
71.7294,29.6543
71.7804,32.3299
71.8314,32.0055
71.8824,30.5781
71.9334,41.3928
71.9844,29.9954
72.0354,33.7898
72.0864,30.6355
72.1374,51.6325
72.1884,36.1143
72.2394,39.4497
72.2904,51.3949
72.3414,63.8584
72.3924,54.8473
72.4434,51.8522
72.4944,48.9552
72.5454,45.9677
72.5964,48.908
72.6474,66.1831
72.6984,71.8156
72.7494,92.8738
72.8004,108.3717
72.8514,94.6954
72.9024,88.4794
72.9534,87.1726
73.0044,88.8696
73.0554,89.9488
73.1064,61.0947
73.1574,63.0405
73.2084,54.1557
73.2594,72.3316
73.3104,58.8371
73.3614,64.0529
73.4124,87.7068
73.4634,111.0441
73.5144,132.9246
73.5654,134.3865
73.6164,109.5902
73.6674,132.3388
73.7184,163.1088
73.7694,186.3514
73.8204,190.1712
73.8714,233.1163
73.9224,247.9164
73.9734,232.2012
74.0244,258.6983
74.0754,253.4173
74.1264,218.1232
74.1774,178.4605
74.2284,153.0265
74.2794,153.1252
74.3304,138.9926
74.3814,84.9509
74.4324,69.8413
74.4834,57.3412
74.5344,51.073
74.5854,43.0074
74.6364,37.4676
74.6874,34.1817
74.7384,40.3242
74.7894,39.3095
74.8404,50.0285
74.8914,36.6727
74.9424,46.3085
74.9934,39.4982
75.0444,52.2851
75.0954,64.519
75.1464,48.8621
75.1974,76.5143
75.2484,82.1236
75.2994,74.5828
75.3504,80.1185
75.4014,66.1101
75.4524,75.1597
75.5034,67.3085
75.5544,59.0102
75.6054,59.4861
75.6564,62.2624
75.7074,78.4199
75.7584,82.5096
75.8094,85.4383
75.8604,69.9517
75.9114,69.438
75.9624,72.4309
76.0134,69.2747
76.0644,76.7992
76.1154,83.9601
76.1664,79.2659
76.2174,83.4119
76.2684,79.8115
76.3194,86.6731
76.3704,77.5557
76.4214,78.1084
76.4724,68.4323
76.5234,61.8418
76.5744,45.7995
76.6254,53.1295
76.6764,42.5258
76.7274,50.4526
76.7784,43.7477
76.8294,41.9237
76.8804,42.4204
76.9314,42.172
76.9824,56.8044
77.0334,76.5048
77.0844,90.0128
77.1354,100.6548
77.1864,130.4991
77.2374,148.4707
77.2884,170.7398
77.3394,168.2317
77.3904,119.8466
77.4414,106.1554
77.4924,112.6949
77.5434,93.028
77.5944,86.5894
77.6454,65.1524
77.6964,59.7043
77.7474,46.7108
77.7984,43.0863
77.8494,36.9966
77.9004,43.3283
77.9514,29.8305
78.0024,43.2153
78.0534,25.1907
78.1044,28.2308
78.1554,34.827
78.2064,29.5809
78.2574,39.9139
78.3084,26.6858
78.3594,33.584
78.4104,27.1304
78.4614,35.6058
78.5124,32.1964
78.5634,27.5089
78.6144,36.3427
78.6654,41.0272
78.7164,43.9456
78.7674,43.6992
78.8184,38.533
78.8694,40.8221
78.9204,48.5407
78.9714,48.9827
79.0224,86.4186
79.0734,85.1271
79.1244,100.6124
79.1754,95.5517
79.2264,84.302
79.2774,92.1893
79.3284,88.2674
79.3794,94.3078
79.4304,107.0185
79.4814,112.8938
79.5324,128.4673
79.5834,115.6929
79.6344,105.8588
79.6854,95.3516
79.7364,80.656
79.7874,109.4988
79.8384,81.8159
79.8894,66.122
79.9404,63.6855
79.9914,55.1178
80.0424,37.1234
80.0934,44.4157
80.1444,42.4519
80.1954,32.3315
80.2464,35.8478
80.2974,44.7904
80.3484,47.485
80.3994,34.4155
80.4504,40.0533
80.5014,30.0052
80.5524,35.1717
80.6034,25.4863
80.6544,29.397
80.7054,23.0936
80.7564,28.6768
80.8074,30.4982
80.8584,42.0464
80.9094,32.4517
80.9604,31.6927
81.0114,24.0939
81.0624,25.5328
81.1134,33.5262
81.1644,27.2657
81.2154,30.184
81.2664,29.4991
81.3174,33.8239
81.3684,25.6495
81.4194,25.0043
81.4704,31.8402
81.5214,26.8358
81.5724,31.0514
81.6234,30.2905
81.6744,26.6621
81.7254,29.4404
81.7764,27.2352
81.8274,35.1488
81.8784,39.4865
81.9294,37.9892
81.9804,19.4072
82.0314,37.7179
82.0824,28.4894
82.1334,23.5957
82.1844,35.8313
82.2354,37.573
82.2864,35.0061
82.3374,35.3842
82.3884,33.0057
82.4394,35.7887
82.4904,30.9777
82.5414,27.9157
82.5924,33.1988
82.6434,34.5937
82.6944,38.3289
82.7454,39.7787
82.7964,37.1377
82.8474,39.2975
82.8984,35.8
82.9494,34.952
83.0004,34.0059
83.0514,24.0042
83.1024,30.8276
83.1534,31.174
83.2044,25.3181
83.2554,34.0972
83.3064,34.6551
83.3574,31.2525
83.4084,33.7192
83.4594,34.0059
83.5104,32.8415
83.5614,36.4868
83.6124,49.3503
83.6634,41.8865
83.7144,46.008
83.7654,54.0845
83.8164,72.2274
83.8674,76.5043
83.9184,97.9067
83.9694,88.9981
84.0204,86.3092
84.0714,74.2738
84.1224,57.3679
84.1734,56.1613
84.2244,63.8436
84.2754,47.1518
84.3264,41.0071
84.3774,37.1801
84.4284,43.728
84.4794,34.5069
84.5304,27.2864
84.5814,32.2007
84.6324,30.776
84.6834,28.3848
84.7344,26.0213
84.7854,40.285
84.8364,18.4392
84.8874,38.5099
84.9384,42.839
84.9894,28.1811
85.0404,37.6425
85.0914,28.2692
85.1424,34.1808
85.1934,34.3403
85.2444,32.6519
85.2954,31.9289
85.3464,34.22
85.3974,30.7559
85.4484,29.4901
85.4994,31.3118
85.5504,30.5595
85.6014,24.0623
85.6524,35.2973
85.7034,40.3322
85.7544,45.1973
85.8054,46.5982
85.8564,32.827
85.9074,42.7975
85.9584,46.0682
86.0094,66.838
86.0604,96.5038
86.1114,94.7267
86.1624,118.7489
86.2134,111.7403
86.2644,99.3841
86.3154,90.3359
86.3664,80.4057
86.4174,75.2468
86.4684,91.4334
86.5194,70.3718
86.5704,69.8629
86.6214,58.7039
86.6724,63.3605
86.7234,55.0349
86.7744,60.0787
86.8254,46.4809
86.8764,49.9389
86.9274,71.9586
86.9784,71.2052
87.0294,85.1668
87.0804,91.8138
87.1314,122.5972
87.1824,129.6057
87.2334,134.5494
87.2844,157.2332
87.3354,209.4558
87.3864,219.7174
87.4374,221.0135
87.4884,187.3314
87.5394,159.0275
87.5904,140.168
87.6414,144.8683
87.6924,126.4167
87.7434,103.2886
87.7944,88.3428
87.8454,76.2335
87.8964,59.0315
87.9474,65.5284
87.9984,55.3327
88.0494,54.4046
88.1004,39.2036
88.1514,50.0087
88.2024,52.1995
88.2534,40.7043
88.3044,48.8391
88.3554,56.248
88.4064,59.4119
88.4574,67.3329
88.5084,76.3571
88.5594,66.0313
88.6104,75.7217
88.6614,73.684
88.7124,77.7105
88.7634,77.8821
88.8144,81.4404
88.8654,92.6035
88.9164,103.2828
88.9674,113.3833
89.0184,131.6118
89.0694,156.3059
89.1204,121.8174
89.1714,122.7398
89.2224,98.1365
89.2734,114.3565
89.3244,135.4349
89.3754,127.0511
89.4264,119.9435
89.4774,108.304
89.5284,99.3326
89.5794,81.8131
89.6304,69.7484
89.6814,63.4769
89.7324,69.5266
89.7834,59.6815
89.8344,64.7655
89.8854,52.9742
89.9364,48.798
89.9874,42.6758
90.0384,48.0105
90.0894,35.0407
90.1404,34.3033
90.1914,33.6837
90.2424,36.2322
90.2934,32.8216
90.3444,35.5124
90.3954,36.4771
90.4464,37.2366
90.4974,32.4095
90.5484,35.7458
90.5994,30.5317
90.6504,30.8941
90.7014,40.191
90.7524,24.4083
90.8034,22.6774
90.8544,26.0172
90.9054,24.1359
90.9224,27.0047