File: data/xrd_icdd_PDF/00-065-0725 (PD3).csv
2,16867
2.06,15161
2.12,13323
2.18,11907
2.24,10611
2.3,9829
2.36,9174
2.42,8810
2.48,8258
2.54,7932
2.6,7610
2.66,7457
2.72,7203
2.78,7178
2.84,7022
2.9,6951
2.96,6591
3.02,6196
3.08,6173
3.14,5973
3.2,5750
3.26,5629
3.32,5347
3.38,4960
3.44,4757
3.5,4600
3.56,4476
3.62,4300
3.68,3943
3.74,3931
3.8,3717
3.86,3558
3.92,3295
3.98,3222
4.04,3083
4.1,2904
4.16,2761
4.22,2744
4.28,2525
4.34,2414
4.4,2420
4.46,2337
4.52,2279
4.58,2178
4.64,2057
4.7,2035
4.76,1940
4.82,1859
4.88,1807
4.94,1797
5,1702
5.06,1650
5.12,1589
5.18,1522
5.24,1550
5.3,1427
5.36,1441
5.42,1364
5.48,1350
5.54,1256
5.6,1254
5.66,1176
5.72,1210
5.78,1148
5.84,1093
5.9,1083
5.96,1006
6.02,1012
6.08,956
6.14,925
6.2,843
6.26,873
6.32,836
6.38,855
6.44,807
6.5,730
6.56,765
6.62,752
6.68,779
6.74,712
6.8,657
6.86,736
6.92,635
6.98,656
7.04,640
7.1,613
7.16,602
7.22,594
7.28,592
7.34,550
7.4,554
7.46,529
7.52,560
7.58,537
7.64,501
7.7,514
7.76,477
7.82,469
7.88,467
7.94,476
8,452
8.06,459
8.12,419
8.18,426
8.24,424
8.3,436
8.36,396
8.42,406
8.48,407
8.54,396
8.6,370
8.66,329
8.72,358
8.78,336
8.84,392
8.9,361
8.96,345
9.02,319
9.08,343
9.14,320
9.2,359
9.26,300
9.32,330
9.38,320
9.44,304
9.5,291
9.56,309
9.62,316
9.68,294
9.74,274
9.8,264
9.86,260
9.92,278
9.98,283
10.04,272
10.1,285
10.16,225
10.22,268
10.28,288
10.34,232
10.4,232
10.46,241
10.52,237
10.58,253
10.64,250
10.7,227
10.76,245
10.82,258
10.88,237
10.94,228
11,233
11.06,223
11.12,231
11.18,233
11.24,226
11.3,237
11.36,238
11.42,216
11.48,240
11.54,237
11.6,229
11.66,239
11.72,245
11.78,207
11.84,210
11.9,229
11.96,226
12.02,234
12.08,208
12.14,209
12.2,205
12.26,201
12.32,234
12.38,227
12.44,223
12.5,188
12.56,214
12.62,226
12.68,229
12.74,181
12.8,210
12.86,229
12.92,181
12.98,192
13.04,193
13.1,213
13.16,207
13.22,230
13.28,213
13.34,221
13.4,186
13.46,194
13.52,207
13.58,217
13.64,223
13.7,213
13.76,207
13.82,203
13.88,181
13.94,206
14,198
14.06,184
14.12,219
14.18,181
14.24,191
14.3,192
14.36,220
14.42,187
14.48,195
14.54,200
14.6,195
14.66,222
14.72,215
14.78,182
14.84,199
14.9,189
14.96,194
15.02,196
15.08,223
15.14,203
15.2,199
15.26,199
15.32,189
15.38,217
15.44,205
15.5,187
15.56,202
15.62,223
15.68,189
15.74,174
15.8,215
15.86,195
15.92,185
15.98,199
16.04,217
16.1,227
16.16,181
16.22,192
16.28,189
16.34,192
16.4,187
16.46,195
16.52,197
16.58,186
16.64,207
16.7,218
16.76,209
16.82,192
16.88,206
16.94,169
17,214
17.06,202
17.12,202
17.18,193
17.24,176
17.3,205
17.36,215
17.42,176
17.48,221
17.54,215
17.6,213
17.66,231
17.72,203
17.78,201
17.84,213
17.9,223
17.96,210
18.02,185
18.08,182
18.14,206
18.2,198
18.26,204
18.32,218
18.38,215
18.44,208
18.5,189
18.56,223
18.62,213
18.68,201
18.74,216
18.8,225
18.86,194
18.92,177
18.98,229
19.04,206
19.1,204
19.16,179
19.22,201
19.28,208
19.34,221
19.4,235
19.46,237
19.52,230
19.58,220
19.64,222
19.7,211
19.76,207
19.82,237
19.88,224
19.94,225
20,257
20.06,267
20.12,235
20.18,237
20.24,221
20.3,240
20.36,241
20.42,258
20.48,237
20.54,215
20.6,261
20.66,234
20.72,245
20.78,205
20.84,237
20.9,240
20.96,257
21.02,273
21.08,245
21.14,256
21.2,246
21.26,244
21.32,233
21.38,220
21.44,241
21.5,246
21.56,256
21.62,218
21.68,244
21.74,239
21.8,225
21.86,253
21.92,267
21.98,245
22.04,250
22.1,268
22.16,229
22.22,222
22.28,263
22.34,250
22.4,248
22.46,253
22.52,247
22.58,272
22.64,232
22.7,257
22.76,239
22.82,272
22.88,226
22.94,266
23,234
23.06,243
23.12,246
23.18,262
23.24,244
23.3,223
23.36,247
23.42,271
23.48,251
23.54,263
23.6,257
23.66,231
23.72,252
23.78,238
23.84,266
23.9,231
23.96,262
24.02,261
24.08,257
24.14,262
24.2,265
24.26,263
24.32,248
24.38,241
24.44,242
24.5,289
24.56,271
24.62,240
24.68,239
24.74,230
24.8,256
24.86,244
24.92,265
24.98,236
25.04,248
25.1,241
25.16,243
25.22,256
25.28,238
25.34,251
25.4,252
25.46,239
25.52,230
25.58,268
25.64,272
25.7,248
25.76,241
25.82,259
25.88,247
25.94,251
26,251
26.06,252
26.12,244
26.18,243
26.24,253
26.3,276
26.36,257
26.42,263
26.48,251
26.54,271
26.6,275
26.66,277
26.72,275
26.78,244
26.84,267
26.9,270
26.96,286
27.02,280
27.08,251
27.14,272
27.2,256
27.26,276
27.32,236
27.38,295
27.44,314
27.5,290
27.56,281
27.62,301
27.68,283
27.74,294
27.8,312
27.86,333
27.92,310
27.98,308
28.04,309
28.1,327
28.16,302
28.22,313
28.28,345
28.34,339
28.4,357
28.46,347
28.52,331
28.58,352
28.64,370
28.7,363
28.76,378
28.82,347
28.88,329
28.94,392
29,381
29.06,387
29.12,396
29.18,415
29.24,426
29.3,450
29.36,426
29.42,462
29.48,406
29.54,434
29.6,476
29.66,474
29.72,488
29.78,484
29.84,502
29.9,511
29.96,550
30.02,554
30.08,621
30.14,585
30.2,645
30.26,729
30.32,782
30.38,824
30.44,824
30.5,895
30.56,901
30.62,1018
30.68,1131
30.74,1292
30.8,1300
30.86,1460
30.92,1496
30.98,1651
31.04,1817
31.1,1803
31.16,1904
31.22,2158
31.28,2225
31.34,2285
31.4,2408
31.46,2387
31.52,2607
31.58,2593
31.64,2618
31.7,2597
31.76,2543
31.82,2584
31.88,2685
31.94,2526
32,2456
32.06,2344
32.12,2436
32.18,2269
32.24,2224
32.3,2265
32.36,2062
32.42,1968
32.48,1829
32.54,1769
32.6,1715
32.66,1683
32.72,1587
32.78,1482
32.84,1487
32.9,1373
32.96,1372
33.02,1325
33.08,1235
33.14,1304
33.2,1273
33.26,1354
33.32,1338
33.38,1329
33.44,1410
33.5,1498
33.56,1529
33.62,1614
33.68,1671
33.74,1778
33.8,1946
33.86,1978
33.92,2091
33.98,2154
34.04,2180
34.1,2233
34.16,2320
34.22,2330
34.28,2406
34.34,2357
34.4,2464
34.46,2597
34.52,2391
34.58,2468
34.64,2517
34.7,2514
34.76,2477
34.82,2484
34.88,2428
34.94,2505
35,2477
35.06,2588
35.12,2587
35.18,2694
35.24,2825
35.3,2858
35.36,2916
35.42,2981
35.48,2965
35.54,3129
35.6,3257
35.66,3345
35.72,3399
35.78,3459
35.84,3651
35.9,3673
35.96,3914
36.02,3876
36.08,3919
36.14,3903
36.2,3899
36.26,3829
36.32,3695
36.38,3759
36.44,3714
36.5,3620
36.56,3450
36.62,3428
36.68,3187
36.74,3077
36.8,2979
36.86,2765
36.92,2713
36.98,2424
37.04,2274
37.1,2076
37.16,1931
37.22,1774
37.28,1664
37.34,1583
37.4,1436
37.46,1339
37.52,1152
37.58,1093
37.64,1020
37.7,923
37.76,821
37.82,719
37.88,694
37.94,681
38,642
38.06,600
38.12,570
38.18,509
38.24,491
38.3,467
38.36,429
38.42,451
38.48,404
38.54,421
38.6,342
38.66,421
38.72,373
38.78,368
38.84,372
38.9,376
38.96,375
39.02,417
39.08,349
39.14,349
39.2,327
39.26,307
39.32,309
39.38,323
39.44,327
39.5,313
39.56,327
39.62,306
39.68,307
39.74,319
39.8,301
39.86,338
39.92,301
39.98,300
40.04,292
40.1,298
40.16,267
40.22,314
40.28,265
40.34,302
40.4,300
40.46,284
40.52,295
40.58,288
40.64,297
40.7,281
40.76,285
40.82,271
40.88,242
40.94,280
41,273
41.06,279
41.12,311
41.18,272
41.24,276
41.3,270
41.36,258
41.42,265
41.48,274
41.54,248
41.6,265
41.66,263
41.72,236
41.78,250
41.84,234
41.9,255
41.96,231
42.02,229
42.08,243
42.14,221
42.2,246
42.26,259
42.32,274
42.38,230
42.44,256
42.5,253
42.56,231
42.62,259
42.68,229
42.74,259
42.8,224
42.86,259
42.92,244
42.98,240
43.04,275
43.1,214
43.16,248
43.22,260
43.28,251
43.34,259
43.4,258
43.46,228
43.52,261
43.58,245
43.64,253
43.7,235
43.76,276
43.82,289
43.88,264
43.94,254
44,264
44.06,263
44.12,258
44.18,269
44.24,303
44.3,285
44.36,244
44.42,273
44.48,286
44.54,307
44.6,264
44.66,307
44.72,280
44.78,274
44.84,262
44.9,294
44.96,278
45.02,311
45.08,291
45.14,297
45.2,284
45.26,336
45.32,314
45.38,329
45.44,299
45.5,314
45.56,333
45.62,335
45.68,382
45.74,378
45.8,374
45.86,356
45.92,379
45.98,419
46.04,456
46.1,456
46.16,484
46.22,483
46.28,504
46.34,554
46.4,544
46.46,604
46.52,597
46.58,626
46.64,641
46.7,655
46.76,709
46.82,738
46.88,824
46.94,806
47,805
47.06,866
47.12,880
47.18,914
47.24,982
47.3,995
47.36,924
47.42,921
47.48,950
47.54,948
47.6,949
47.66,950
47.72,940
47.78,932
47.84,853
47.9,894
47.96,838
48.02,867
48.08,821
48.14,762
48.2,740
48.26,726
48.32,708
48.38,671
48.44,658
48.5,627
48.56,560
48.62,523
48.68,541
48.74,491
48.8,459
48.86,463
48.92,456
48.98,440
49.04,423
49.1,400
49.16,382
49.22,400
49.28,372
49.34,338
49.4,324
49.46,333
49.52,306
49.58,340
49.64,281
49.7,286
49.76,272
49.82,269
49.88,284
49.94,310
50,265
50.06,257
50.12,268
50.18,262
50.24,270
50.3,286
50.36,274
50.42,285
50.48,260
50.54,237
50.6,255
50.66,247
50.72,235
50.78,248
50.84,245
50.9,223
50.96,250
51.02,274
51.08,258
51.14,262
51.2,268
51.26,256
51.32,245
51.38,236
51.44,244
51.5,247
51.56,235
51.62,253
51.68,253
51.74,251
51.8,234
51.86,255
51.92,257
51.98,256
52.04,254
52.1,246
52.16,259
52.22,253
52.28,262
52.34,246
52.4,246
52.46,247
52.52,247
52.58,258
52.64,265
52.7,284
52.76,266
52.82,260
52.88,266
52.94,312
53,266
53.06,285
53.12,298
53.18,254
53.24,264
53.3,307
53.36,265
53.42,301
53.48,276
53.54,299
53.6,300
53.66,276
53.72,287
53.78,301
53.84,282
53.9,318
53.96,283
54.02,294
54.08,307
54.14,323
54.2,327
54.26,307
54.32,334
54.38,335
54.44,293
54.5,350
54.56,388
54.62,356
54.68,392
54.74,393
54.8,437
54.86,417
54.92,452
54.98,492
55.04,460
55.1,505
55.16,599
55.22,556
55.28,652
55.34,661
55.4,687
55.46,770
55.52,819
55.58,853
55.64,922
55.7,988
55.76,1041
55.82,1096
55.88,1148
55.94,1219
56,1202
56.06,1236
56.12,1353
56.18,1383
56.24,1430
56.3,1442
56.36,1420
56.42,1444
56.48,1465
56.54,1544
56.6,1481
56.66,1491
56.72,1462
56.78,1443
56.84,1422
56.9,1410
56.96,1343
57.02,1391
57.08,1332
57.14,1244
57.2,1195
57.26,1128
57.32,1065
57.38,1066
57.44,950
57.5,853
57.56,849
57.62,837
57.68,802
57.74,764
57.8,623
57.86,679
57.92,646
57.98,578
58.04,501
58.1,558
58.16,503
58.22,453
58.28,443
58.34,394
58.4,399
58.46,414
58.52,399
58.58,387
58.64,346
58.7,373
58.76,367
58.82,364
58.88,331
58.94,378
59,318
59.06,315
59.12,321
59.18,343
59.24,322
59.3,337
59.36,327
59.42,306
59.48,301
59.54,318
59.6,321
59.66,307
59.72,341
59.78,306
59.84,349
59.9,329
59.96,313
60.02,336
60.08,317
60.14,372
60.2,347
60.26,341
60.32,319
60.38,336
60.44,335
60.5,343
60.56,376
60.62,370
60.68,387
60.74,365
60.8,390
60.86,374
60.92,387
60.98,413
61.04,425
61.1,472
61.16,489
61.22,487
61.28,484
61.34,508
61.4,595
61.46,596
61.52,626
61.58,646
61.64,675
61.7,702
61.76,715
61.82,817
61.88,847
61.94,852
62,952
62.06,937
62.12,991
62.18,980
62.24,1064
62.3,1047
62.36,1054
62.42,1171
62.48,1156
62.54,1202
62.6,1191
62.66,1256
62.72,1214
62.78,1272
62.84,1252
62.9,1217
62.96,1238
63.02,1162
63.08,1139
63.14,1137
63.2,1072
63.26,1104
63.32,1123
63.38,1039
63.44,947
63.5,988
63.56,865
63.62,848
63.68,941
63.74,825
63.8,766
63.86,759
63.92,694
63.98,629
64.04,624
64.1,581
64.16,582
64.22,591
64.28,529
64.34,520
64.4,484
64.46,507
64.52,480
64.58,437
64.64,406
64.7,444
64.76,437
64.82,419
64.88,377
64.94,426
65,423
65.06,390
65.12,375
65.18,387
65.24,430
65.3,428
65.36,418
65.42,433
65.48,441
65.54,465
65.6,475
65.66,481
65.72,479
65.78,498
65.84,506
65.9,498
65.96,520
66.02,532
66.08,564
66.14,586
66.2,595
66.26,593
66.32,624
66.38,626
66.44,731
66.5,680
66.56,670
66.62,727
66.68,754
66.74,805
66.8,826
66.86,866
66.92,834
66.98,902
67.04,1003
67.1,992
67.16,1028
67.22,1072
67.28,1036
67.34,1138
67.4,1146
67.46,1188
67.52,1185
67.58,1304
67.64,1263
67.7,1283
67.76,1219
67.82,1311
67.88,1361
67.94,1330
68,1330
68.06,1315
68.12,1359
68.18,1275
68.24,1264
68.3,1323
68.36,1242
68.42,1275
68.48,1223
68.54,1217
68.6,1144
68.66,1142
68.72,1173
68.78,1072
68.84,1114
68.9,1025
68.96,990
69.02,1003
69.08,937
69.14,929
69.2,916
69.26,833
69.32,799
69.38,796
69.44,797
69.5,723
69.56,673
69.62,696
69.68,664
69.74,638
69.8,591
69.86,577
69.92,528
69.98,497
70,549