File: data/xrd_icdd_PDF/00-054-1204 (PD3).csv
3,747
3.06,757
3.12,760
3.18,733
3.24,748
3.3,737
3.36,732
3.42,717
3.48,700
3.54,698
3.6,674
3.66,701
3.72,638
3.78,668
3.84,665
3.9,706
3.96,662
4.02,650
4.08,620
4.14,609
4.2,663
4.26,630
4.32,688
4.38,638
4.44,638
4.5,617
4.56,641
4.62,628
4.68,604
4.74,614
4.8,612
4.86,590
4.92,628
4.98,634
5.04,599
5.1,599
5.16,602
5.22,594
5.28,597
5.34,602
5.4,568
5.46,584
5.52,577
5.58,610
5.64,635
5.7,649
5.76,619
5.82,668
5.88,656
5.94,642
6,692
6.06,747
6.12,713
6.18,760
6.24,722
6.3,741
6.36,751
6.42,759
6.48,765
6.54,754
6.6,729
6.66,764
6.72,772
6.78,710
6.84,771
6.9,667
6.96,709
7.02,689
7.08,717
7.14,727
7.2,688
7.26,697
7.32,715
7.38,694
7.44,747
7.5,670
7.56,791
7.62,765
7.68,746
7.74,825
7.8,729
7.86,758
7.92,797
7.98,790
8.04,798
8.1,845
8.16,830
8.22,772
8.28,799
8.34,795
8.4,717
8.46,767
8.52,803
8.58,807
8.64,828
8.7,787
8.76,844
8.82,813
8.88,815
8.94,824
9,889
9.06,871
9.12,855
9.18,850
9.24,847
9.3,905
9.36,912
9.42,916
9.48,928
9.54,921
9.6,924
9.66,948
9.72,994
9.78,996
9.84,1053
9.9,993
9.96,1068
10.02,1005
10.08,1086
10.14,1062
10.2,1106
10.26,1096
10.32,1094
10.38,1117
10.44,1104
10.5,1100
10.56,1200
10.62,1165
10.68,1152
10.74,1141
10.8,1167
10.86,1192
10.92,1167
10.98,1241
11.04,1175
11.1,1203
11.16,1211
11.22,1200
11.28,1253
11.34,1261
11.4,1210
11.46,1201
11.52,1219
11.58,1295
11.64,1280
11.7,1270
11.76,1266
11.82,1233
11.88,1314
11.94,1249
12,1251
12.06,1318
12.12,1267
12.18,1311
12.24,1334
12.3,1272
12.36,1284
12.42,1349
12.48,1337
12.54,1315
12.6,1392
12.66,1367
12.72,1328
12.78,1342
12.84,1319
12.9,1285
12.96,1378
13.02,1455
13.08,1332
13.14,1417
13.2,1444
13.26,1334
13.32,1454
13.38,1395
13.44,1356
13.5,1371
13.56,1477
13.62,1446
13.68,1537
13.74,1630
13.8,1790
13.86,2225
13.92,3149
13.98,4355
14.04,4991
14.1,3605
14.16,1823
14.22,1666
14.28,1814
14.34,2039
14.4,2298
14.46,2826
14.52,4019
14.58,6924
14.64,10205
14.7,12069
14.76,6435
14.82,2194
14.88,1784
14.94,1643
15,1596
15.06,1524
15.12,1495
15.18,1537
15.24,1485
15.3,1466
15.36,1506
15.42,1464
15.48,1456
15.54,1468
15.6,1423
15.66,1530
15.72,1507
15.78,1529
15.84,1464
15.9,1486
15.96,1568
16.02,1439
16.08,1455
16.14,1477
16.2,1462
16.26,1523
16.32,1511
16.38,1462
16.44,1522
16.5,1555
16.56,1547
16.62,1501
16.68,1476
16.74,1554
16.8,1526
16.86,1604
16.92,1558
16.98,1569
17.04,1699
17.1,1905
17.16,2153
17.22,2776
17.28,4241
17.34,4992
17.4,3614
17.46,1847
17.52,1672
17.58,1578
17.64,1588
17.7,1496
17.76,1575
17.82,1493
17.88,1461
17.94,1462
18,1445
18.06,1479
18.12,1470
18.18,1475
18.24,1493
18.3,1508
18.36,1419
18.42,1437
18.48,1514
18.54,1507
18.6,1505
18.66,1434
18.72,1459
18.78,1432
18.84,1482
18.9,1453
18.96,1462
19.02,1498
19.08,1473
19.14,1399
19.2,1399
19.26,1403
19.32,1534
19.38,1482
19.44,1452
19.5,1482
19.56,1505
19.62,1416
19.68,1519
19.74,1529
19.8,1441
19.86,1509
19.92,1420
19.98,1453
20.04,1511
20.1,1474
20.16,1474
20.22,1459
20.28,1448
20.34,1446
20.4,1492
20.46,1470
20.52,1455
20.58,1479
20.64,1448
20.7,1445
20.76,1469
20.82,1451
20.88,1480
20.94,1459
21,1470
21.06,1521
21.12,1448
21.18,1483
21.24,1424
21.3,1512
21.36,1537
21.42,1505
21.48,1511
21.54,1491
21.6,1457
21.66,1546
21.72,1542
21.78,1441
21.84,1434
21.9,1524
21.96,1524
22.02,1582
22.08,1785
22.14,2211
22.2,2193
22.26,1704
22.32,1577
22.38,1518
22.44,1505
22.5,1473
22.56,1591
22.62,1420
22.68,1477
22.74,1506
22.8,1402
22.86,1437
22.92,1464
22.98,1522
23.04,1528
23.1,1436
23.16,1517
23.22,1469
23.28,1554
23.34,1680
23.4,1608
23.46,1673
23.52,1532
23.58,1639
23.64,1776
23.7,2349
23.76,3541
23.82,4676
23.88,2909
23.94,1719
24,1557
24.06,1560
24.12,1638
24.18,1728
24.24,1699
24.3,1581
24.36,1540
24.42,1484
24.48,1475
24.54,1449
24.6,1473
24.66,1459
24.72,1435
24.78,1503
24.84,1491
24.9,1498
24.96,1503
25.02,1527
25.08,1504
25.14,1502
25.2,1455
25.26,1570
25.32,1552
25.38,1582
25.44,1635
25.5,1599
25.56,1600
25.62,1706
25.68,1651
25.74,1674
25.8,1943
25.86,2639
25.92,4036
25.98,3836
26.04,2476
26.1,1668
26.16,1640
26.22,1546
26.28,1607
26.34,1488
26.4,1517
26.46,1552
26.52,1548
26.58,1507
26.64,1757
26.7,1732
26.76,1622
26.82,1659
26.88,1609
26.94,1539
27,1683
27.06,1669
27.12,1596
27.18,1649
27.24,1785
27.3,2079
27.36,2960
27.42,3609
27.48,2702
27.54,1999
27.6,1795
27.66,1714
27.72,1861
27.78,1804
27.84,2004
27.9,2064
27.96,2292
28.02,2688
28.08,3710
28.14,6209
28.2,13611
28.26,23793
28.32,19578
28.38,19017
28.44,23537
28.5,13508
28.56,5587
28.62,3165
28.68,3167
28.74,3727
28.8,3412
28.86,2579
28.92,2102
28.98,1973
29.04,1919
29.1,1913
29.16,2062
29.22,2099
29.28,2398
29.34,2778
29.4,3928
29.46,6958
29.52,16983
29.58,34036
29.64,25759
29.7,12890
29.76,4407
29.82,2935
29.88,2327
29.94,2063
30,1911
30.06,1932
30.12,1821
30.18,1783
30.24,1823
30.3,1777
30.36,1712
30.42,1714
30.48,1746
30.54,1722
30.6,1758
30.66,1694
30.72,1663
30.78,1741
30.84,1672
30.9,1727
30.96,1740
31.02,1764
31.08,1764
31.14,1890
31.2,2041
31.26,2199
31.32,2774
31.38,4284
31.44,9115
31.5,15661
31.56,10808
31.62,6204
31.68,2711
31.74,2335
31.8,2045
31.86,1873
31.92,1765
31.98,1747
32.04,1688
32.1,1685
32.16,1680
32.22,1622
32.28,1640
32.34,1635
32.4,1649
32.46,1636
32.52,1607
32.58,1609
32.64,1642
32.7,1508
32.76,1627
32.82,1573
32.88,1643
32.94,1680
33,1601
33.06,1531
33.12,1597
33.18,1651
33.24,1597
33.3,1631
33.36,1612
33.42,1624
33.48,1588
33.54,1689
33.6,1675
33.66,1778
33.72,1770
33.78,2129
33.84,2793
33.9,5345
33.96,6376
34.02,4467
34.08,2365
34.14,1874
34.2,1782
34.26,1739
34.32,1638
34.38,1784
34.44,1892
34.5,2053
34.56,2922
34.62,5566
34.68,6215
34.74,4285
34.8,2643
34.86,2057
34.92,2143
34.98,2956
35.04,4773
35.1,4050
35.16,3269
35.22,2041
35.28,1839
35.34,1644
35.4,1560
35.46,1568
35.52,1645
35.58,1680
35.64,1620
35.7,1720
35.76,1602
35.82,1623
35.88,1615
35.94,1745
36,1943
36.06,2209
36.12,3179
36.18,3749
36.24,2825
36.3,2113
36.36,1736
36.42,1596
36.48,1618
36.54,1648
36.6,1655
36.66,1555
36.72,1743
36.78,2240
36.84,2964
36.9,2358
36.96,2204
37.02,1909
37.08,2115
37.14,2777
37.2,2340
37.26,1940
37.32,1736
37.38,1609
37.44,1542
37.5,1636
37.56,1613
37.62,1568
37.68,1618
37.74,1646
37.8,1664
37.86,1927
37.92,2470
37.98,2143
38.04,2039
38.1,1681
38.16,1649
38.22,1601
38.28,1851
38.34,2258
38.4,1909
38.46,1858
38.52,1717
38.58,1610
38.64,1539
38.7,1589
38.76,1544
38.82,1574
38.88,1566
38.94,1514
39,1506
39.06,1712
39.12,1817
39.18,1674
39.24,1593
39.3,1540
39.36,1623
39.42,1510
39.48,1578
39.54,1583
39.6,1475
39.66,1525
39.72,1526
39.78,1539
39.84,1489
39.9,1529
39.96,1470
40.02,1538
40.08,1509
40.14,1579
40.2,1512
40.26,1520
40.32,1443
40.38,1584
40.44,1581
40.5,1566
40.56,1631
40.62,1895
40.68,1708
40.74,1691
40.8,1605
40.86,1546
40.92,1510
40.98,1659
41.04,1553
41.1,1600
41.16,1512
41.22,1557
41.28,1514
41.34,1606
41.4,1500
41.46,1563
41.52,1531
41.58,1595
41.64,1573
41.7,1620
41.76,1695
41.82,2123
41.88,2150
41.94,1964
42,1809
42.06,1847
42.12,2106
42.18,2955
42.24,2328
42.3,2352
42.36,1768
42.42,1690
42.48,1676
42.54,1784
42.6,1870
42.66,1775
42.72,1967
42.78,2310
42.84,2371
42.9,3153
42.96,3775
43.02,2571
43.08,2463
43.14,1783
43.2,1680
43.26,1577
43.32,1634
43.38,1617
43.44,1695
43.5,1648
43.56,1654
43.62,1705
43.68,1740
43.74,1815
43.8,2119
43.86,2418
43.92,5091
43.98,3147
44.04,3171
44.1,1956
44.16,1760
44.22,1636
44.28,1635
44.34,1658
44.4,1570
44.46,1682
44.52,1598
44.58,1579
44.64,1635
44.7,1603
44.76,1655
44.82,1746
44.88,1915
44.94,2476
45,4609
45.06,5269
45.12,4234
45.18,4794
45.24,2516
45.3,2452
45.36,1871
45.42,1751
45.48,1589
45.54,1606
45.6,1587
45.66,1613
45.72,1671
45.78,1614
45.84,1693
45.9,1747
45.96,1764
46.02,1725
46.08,1705
46.14,1591
46.2,1575
46.26,1617
46.32,1600
46.38,1565
46.44,1674
46.5,1668
46.56,1656
46.62,1626
46.68,1670
46.74,1641
46.8,1862
46.86,2208
46.92,1834
46.98,2024
47.04,1702
47.1,1658
47.16,1653
47.22,1599
47.28,1631
47.34,1640
47.4,1663
47.46,1725
47.52,1767
47.58,1933
47.64,2074
47.7,2564
47.76,4837
47.82,10567
47.88,5257
47.94,6431
48,3300
48.06,2273
48.12,2100
48.18,2040
48.24,2179
48.3,3046
48.36,5629
48.42,3611
48.48,3952
48.54,3155
48.6,3159
48.66,5978
48.72,4934
48.78,4026
48.84,3665
48.9,2192
48.96,1858
49.02,1822
49.08,1730
49.14,1678
49.2,1768
49.26,1824
49.32,1800
49.38,2145
49.44,2886
49.5,2850
49.56,4910
49.62,3497
49.68,3145
49.74,2869
49.8,2023
49.86,1909
49.92,1893
49.98,2205
50.04,3405
50.1,2965
50.16,2577
50.22,2762
50.28,1937
50.34,1845
50.4,1738
50.46,1771
50.52,1680
50.58,1783
50.64,1849
50.7,1837
50.76,1954
50.82,2124
50.88,3086
50.94,6578
51,4875
51.06,4107
51.12,4545
51.18,2585
51.24,2236
51.3,2100
51.36,1884
51.42,2028
51.48,2047
51.54,1923
51.6,2088
51.66,2277
51.72,4266
51.78,5036
51.84,3205
51.9,4052
51.96,3192
52.02,2464
52.08,2253
52.14,2268
52.2,1873
52.26,1907
52.32,1911
52.38,2089
52.44,2477
52.5,2785
52.56,4795
52.62,4150
52.68,3131
52.74,3445
52.8,2160
52.86,1892
52.92,1852
52.98,1937
53.04,1858
53.1,2004
53.16,2079
53.22,2893
53.28,6006
53.34,4603
53.4,3662
53.46,3852
53.52,2458
53.58,2339
53.64,2235
53.7,2179
53.76,2112
53.82,1905
53.88,1725
53.94,1718
54,1730
54.06,1678
54.12,1720
54.18,1646
54.24,1673
54.3,1629
54.36,1637
54.42,1657
54.48,1557
54.54,1699
54.6,1611
54.66,1625
54.72,1623
54.78,1674
54.84,1735
54.9,1631
54.96,1727
55.02,1733
55.08,1708
55.14,1836
55.2,1964
55.26,2012
55.32,1965
55.38,2215
55.44,2282
55.5,2425
55.56,3360
55.62,7856
55.68,10530
55.74,5010
55.8,7127
55.86,4224
55.92,2527
55.98,2040
56.04,1931
56.1,1858
56.16,1832
56.22,1899
56.28,1953
56.34,1933
56.4,2018
56.46,2381
56.52,3719
56.58,6001
56.64,3228
56.7,3544
56.76,3393
56.82,2114
56.88,1916
56.94,1756
57,1737
57.06,1785
57.12,1698
57.18,1619
57.24,1660
57.3,1776
57.36,1760
57.42,1668
57.48,1994
57.54,2046
57.6,1788
57.66,1964
57.72,1883
57.78,1854
57.84,1881
57.9,2003
57.96,2084
58.02,2803
58.08,6102
58.14,6497
58.2,3715
58.26,5236
58.32,3686
58.38,2789
58.44,2559
58.5,2151
58.56,2306
58.62,2130
58.68,2283
58.74,3450
58.8,3993
58.86,2504
58.92,2970
58.98,2485
59.04,1939
59.1,1785
59.16,1786
59.22,1784
59.28,1809
59.34,1842
59.4,1937
59.46,2426
59.52,3783
59.58,2430
59.64,2243
59.7,2825
59.76,1889
59.82,1731
59.88,1775
59.94,1671
60,1620
60.06,1608
60.12,1626
60.18,1640
60.24,1670
60.3,1695
60.36,1673
60.42,1664
60.48,1665
60.54,1598
60.6,1638
60.66,1659
60.72,1752
60.78,1757
60.84,1803
60.9,1727
60.96,1756
61.02,1800
61.08,1873
61.14,1745
61.2,1793
61.26,2009
61.32,2635
61.38,4336
61.44,2488
61.5,2492
61.56,3058
61.62,2038
61.68,1956
61.74,1939
61.8,2285
61.86,3602
61.92,2387
61.98,2355
62.04,2862
62.1,2121
62.16,1871
62.22,1774
62.28,1814
62.34,1686
62.4,1658
62.46,1762
62.52,1718
62.58,1711
62.64,1730
62.7,2099
62.76,2254
62.82,1786
62.88,1882
62.94,2063
63,1828
63.06,1782
63.12,1885
63.18,1918
63.24,2292
63.3,3933
63.36,5618
63.42,2827
63.48,3533
63.54,4119
63.6,2651
63.66,2152
63.72,2161
63.78,2121
63.84,1894
63.9,1910
63.96,1989
64.02,2618
64.08,3931
64.14,2435
64.2,2519
64.26,3010
64.32,2091
64.38,1948
64.44,1935
64.5,1854
64.56,1893
64.62,2488
64.68,2290
64.74,2547
64.8,2448
64.86,2147
64.92,2215
64.98,1983
65.04,1971
65.1,1832
65.16,1860
65.22,1887
65.28,1767
65.34,1898
65.4,2405
65.46,2461
65.52,3133
65.58,3218
65.64,3185
65.7,4342
65.76,3108
65.82,2504
65.88,2842
65.94,2287
66,1913
66.06,1765
66.12,1745
66.18,1682
66.24,1640
66.3,1622
66.36,1603
66.42,1646
66.48,1690
66.54,1739
66.6,1681
66.66,1742
66.72,1710
66.78,1641
66.84,1709
66.9,1692
66.96,1739
67.02,1606
67.08,1809
67.14,1711
67.2,1671
67.26,1639
67.32,1624
67.38,1709
67.44,1710
67.5,2012
67.56,2127
67.62,2246
67.68,1930
67.74,2001
67.8,2156
67.86,1805
67.92,1904
67.98,1869
68.04,1840
68.1,1738
68.16,1895
68.22,2485
68.28,3480
68.34,2177
68.4,2246
68.46,2933
68.52,2514
68.58,1908
68.64,1914
68.7,1949
68.76,1808
68.82,1750
68.88,1693
68.94,1716
69,2343
69.06,2099
69.12,2053
69.18,2512
69.24,2087
69.3,1733
69.36,1923
69.42,1853
69.48,1729
69.54,1728
69.6,1931
69.66,2603
69.72,2223
69.78,1860
69.84,2087
69.9,2117
69.96,1773
70.02,1693
70.08,1700
70.14,1624
70.2,1713
70.26,1706
70.32,2157
70.38,2024
70.44,1712
70.5,1781
70.56,1908
70.62,1737
70.68,1577
70.74,1612
70.8,1623
70.86,1606
70.92,1636
70.98,1630
71.04,1649
71.1,1868
71.16,1859
71.22,1739
71.28,1798
71.34,1788
71.4,1785
71.46,1631
71.52,1653
71.58,1616
71.64,1628
71.7,1620
71.76,1628
71.82,1542
71.88,1629
71.94,1632
72,1614
72.06,1598
72.12,1592
72.18,1589
72.24,1602
72.3,1603
72.36,1597
72.42,1632
72.48,1643
72.54,1619
72.6,1593
72.66,1597
72.72,1642
72.78,1635
72.84,1646
72.9,1572
72.96,1693
73.02,1629
73.08,1638
73.14,1621
73.2,1603
73.26,1691
73.32,1809
73.38,1851
73.44,1634
73.5,1769
73.56,1832
73.62,1759
73.68,1739
73.74,1701
73.8,1902
73.86,1755
73.92,1880
73.98,2032
74.04,2914
74.1,3135
74.16,2057
74.22,2081
74.28,2478
74.34,2165
74.4,1847
74.46,1719
74.52,1776
74.58,1946
74.64,1953
74.7,1645
74.76,1755
74.82,1803
74.88,1767
74.94,1780
75,1713
75.06,1729
75.12,1742
75.18,1832
75.24,1781
75.3,1739
75.36,1817
75.42,1796
75.48,1840
75.54,1745
75.6,1781
75.66,1735
75.72,2009
75.78,2395
75.84,1886
75.9,1872
75.96,1987
76.02,2100
76.08,2069
76.14,1911
76.2,2032
76.26,1989
76.32,2329
76.38,2837
76.44,2216
76.5,2092
76.56,2332
76.62,2931
76.68,4425
76.74,2899
76.8,2249
76.86,2367
76.92,3031
76.98,2256
77.04,2186
77.1,2631
77.16,2017
77.22,2042
77.28,2169
77.34,2136
77.4,1830
77.46,1932
77.52,1771
77.58,1833
77.64,1767
77.7,1818
77.76,2344
77.82,2265
77.88,1903
77.94,1914
78,2160
78.06,1946
78.12,1924
78.18,2003
78.24,2041
78.3,2567
78.36,3299
78.42,3023
78.48,3615
78.54,2916
78.6,3128
78.66,3486
78.72,3080
78.78,2241
78.84,2281
78.9,2533
78.96,2489
79.02,3289
79.08,3217
79.14,2941
79.2,2400
79.26,2863
79.32,2733
79.38,2425
79.44,2014
79.5,2072
79.56,2044
79.62,1991
79.68,2271
79.74,2886
79.8,4929
79.86,3161
79.92,2476
79.98,2626
80.04,3698
80.1,3185
80.16,2381
80.22,2029
80.28,2076
80.34,2214
80.4,1956
80.46,1843
80.52,1746
80.58,1780
80.64,1856
80.7,1718
80.76,1783
80.82,1781
80.88,1822
80.94,1781
81,2139
81.06,2962
81.12,2280
81.18,1970
81.24,1993
81.3,2356
81.36,2122
81.42,1831
81.48,1864
81.54,1807
81.6,1782
81.66,1843
81.72,1962
81.78,2560
81.84,2670
81.9,2192
81.96,2031
82.02,2194
82.08,2269
82.14,2029
82.2,1996
82.26,2038
82.32,2705
82.38,3553
82.44,2536
82.5,2446
82.56,2431
82.62,3195
82.68,2514
82.74,2146
82.8,1967
82.86,2084
82.92,1959
82.98,1854
83.04,1753
83.1,1789
83.16,1770
83.22,1777
83.28,1775
83.34,1744
83.4,1757
83.46,1768
83.52,1799
83.58,1821
83.64,1913
83.7,1880
83.76,1737
83.82,1751
83.88,1875
83.94,2330
84,2126
84.06,1862
84.12,1798
84.18,2006
84.24,2004
84.3,2074
84.36,2537
84.42,2046
84.48,2033
84.54,1921
84.6,2144
84.66,1976
84.72,1840
84.78,1815
84.84,1770
84.9,1777
84.96,1766
85.02,1836
85.08,2092
85.14,2012
85.2,2207
85.26,3203
85.32,2401
85.38,2136
85.44,2268
85.5,2423
85.56,2468
85.62,2614
85.68,3113
85.74,2322
85.8,2001
85.86,2117
85.92,2564
85.98,2202
86.04,1810
86.1,1867
86.16,1780
86.22,1780
86.28,1695
86.34,1677
86.4,1714
86.46,1702
86.52,1699
86.58,1641
86.64,1742
86.7,1803
86.76,1748
86.82,1716
86.88,1757
86.94,1742
87,1777
87.06,1757
87.12,1764
87.18,1830
87.24,1763
87.3,1738
87.36,1685
87.42,1816
87.48,1732
87.54,1733
87.6,2002
87.66,2371
87.72,2060
87.78,1859
87.84,1851
87.9,1947
87.96,2110
88.02,1852
88.08,1816
88.14,1693
88.2,1787
88.26,1734
88.32,1766
88.38,1745
88.44,1726
88.5,1743
88.56,1792
88.62,1783
88.68,1758
88.74,1863
88.8,2267
88.86,2149
88.92,1956
88.98,1992
89.04,2341
89.1,3438
89.16,2627
89.22,1976
89.28,1924
89.34,2198
89.4,2602
89.46,2095
89.52,1919
89.58,2036
89.64,1956
89.7,1790
89.76,1930
89.82,1906
89.88,1936
89.94,1829
90,1804