File: data/xrd_icdd_PDF/00-063-0553 (PD3).csv
6,2383
6.075,2234
6.15,2347
6.225,2371
6.3,2382
6.375,2350
6.45,2294
6.525,2351
6.6,2388
6.675,2375
6.75,2397
6.825,2378
6.9,2310
6.975,2289
7.05,2345
7.125,2265
7.2,2317
7.275,2247
7.35,2289
7.425,2255
7.5,2275
7.575,2209
7.65,2156
7.725,2160
7.8,2281
7.875,2225
7.95,2348
8.025,2219
8.1,2133
8.175,2154
8.25,2216
8.325,2181
8.4,2160
8.475,2247
8.55,2164
8.625,2190
8.7,2228
8.775,2151
8.85,2150
8.925,2106
9,2017
9.075,2003
9.15,2136
9.225,2127
9.3,2180
9.375,2073
9.45,2080
9.525,2201
9.6,2248
9.675,2090
9.75,2018
9.825,2044
9.9,2059
9.975,2104
10.05,1989
10.125,1982
10.2,1956
10.275,1997
10.35,1945
10.425,1959
10.5,2020
10.575,2055
10.65,1943
10.725,2018
10.8,1942
10.875,1838
10.95,1943
11.025,1951
11.1,1876
11.175,1930
11.25,1885
11.325,1979
11.4,1810
11.475,1990
11.55,1901
11.625,1847
11.7,1904
11.775,1754
11.85,1919
11.925,1841
12,1814
12.075,1812
12.15,1798
12.225,1857
12.3,1888
12.375,1805
12.45,1852
12.525,1763
12.6,1904
12.675,1701
12.75,1758
12.825,1842
12.9,1798
12.975,1838
13.05,1796
13.125,1818
13.2,1762
13.275,1667
13.35,1797
13.425,1765
13.5,1771
13.575,1619
13.65,1753
13.725,1770
13.8,1749
13.875,1718
13.95,1606
14.025,1700
14.1,1771
14.175,1764
14.25,1634
14.325,1659
14.4,1730
14.475,1770
14.55,1712
14.625,1733
14.7,1632
14.775,1677
14.85,1639
14.925,1741
15,1707
15.075,1690
15.15,1628
15.225,1771
15.3,1596
15.375,1735
15.45,1567
15.525,1592
15.6,1653
15.675,1622
15.75,1574
15.825,1581
15.9,1626
15.975,1641
16.05,1628
16.125,1679
16.2,1567
16.275,1682
16.35,1636
16.425,1669
16.5,1627
16.575,1529
16.65,1646
16.725,1615
16.8,1672
16.875,1612
16.95,1558
17.025,1596
17.1,1559
17.175,1553
17.25,1689
17.325,1613
17.4,1577
17.475,1622
17.55,1583
17.625,1657
17.7,1563
17.775,1559
17.85,1614
17.925,1569
18,1648
18.075,1611
18.15,1566
18.225,1592
18.3,1595
18.375,1552
18.45,1676
18.525,1633
18.6,1593
18.675,1540
18.75,1572
18.825,1558
18.9,1621
18.975,1568
19.05,1477
19.125,1496
19.2,1744
19.275,2726
19.35,2252
19.425,1648
19.5,1519
19.575,1587
19.65,1513
19.725,1471
19.8,1546
19.875,1445
19.95,1538
20.025,1542
20.1,1593
20.175,1465
20.25,1476
20.325,1473
20.4,1420
20.475,1598
20.55,1639
20.625,1571
20.7,1560
20.775,1481
20.85,1584
20.925,1722
21,1551
21.075,1369
21.15,1563
21.225,1425
21.3,1378
21.375,1475
21.45,1519
21.525,1403
21.6,1521
21.675,1469
21.75,1430
21.825,1444
21.9,1422
21.975,1381
22.05,1400
22.125,1364
22.2,1401
22.275,1421
22.35,1359
22.425,1306
22.5,1388
22.575,1357
22.65,1351
22.725,1350
22.8,1302
22.875,1315
22.95,1364
23.025,1380
23.1,1409
23.175,1303
23.25,1302
23.325,1355
23.4,1328
23.475,1264
23.55,1376
23.625,1243
23.7,1306
23.775,1232
23.85,1245
23.925,1331
24,1286
24.075,1321
24.15,1366
24.225,1238
24.3,1335
24.375,1386
24.45,1305
24.525,1199
24.6,1261
24.675,1342
24.75,1228
24.825,1265
24.9,1237
24.975,1204
25.05,1167
25.125,1138
25.2,1312
25.275,1213
25.35,1235
25.425,1234
25.5,1263
25.575,1214
25.65,1205
25.725,1150
25.8,1272
25.875,1203
25.95,1254
26.025,1126
26.1,1194
26.175,1141
26.25,1136
26.325,1232
26.4,1202
26.475,1153
26.55,1276
26.625,1249
26.7,1318
26.775,1873
26.85,4791
26.925,5011
27,1697
27.075,1355
27.15,1162
27.225,1171
27.3,1098
27.375,1202
27.45,1063
27.525,1143
27.6,1145
27.675,1138
27.75,1213
27.825,1036
27.9,1056
27.975,1002
28.05,1076
28.125,1216
28.2,1103
28.275,1105
28.35,1172
28.425,1100
28.5,1100
28.575,1056
28.65,1075
28.725,1070
28.8,1116
28.875,1174
28.95,1240
29.025,1530
29.1,3402
29.175,3791
29.25,1556
29.325,1154
29.4,1189
29.475,1119
29.55,1078
29.625,1076
29.7,1063
29.775,1071
29.85,1031
29.925,1040
30,1050
30.075,953
30.15,993
30.225,1013
30.3,1054
30.375,1032
30.45,1005
30.525,1117
30.6,1033
30.675,1149
30.75,1077
30.825,1007
30.9,1002
30.975,1024
31.05,1038
31.125,1057
31.2,969
31.275,1111
31.35,1078
31.425,1078
31.5,1086
31.575,1053
31.65,1063
31.725,1120
31.8,1183
31.875,1218
31.95,1380
32.025,1300
32.1,1589
32.175,1946
32.25,3443
32.325,11980
32.4,31294
32.475,7832
32.55,2697
32.625,1735
32.7,1510
32.775,1211
32.85,1212
32.925,1223
33,1157
33.075,1135
33.15,1056
33.225,1048
33.3,1089
33.375,1035
33.45,1056
33.525,1034
33.6,942
33.675,1053
33.75,1180
33.825,1189
33.9,1119
33.975,1073
34.05,1054
34.125,1052
34.2,1089
34.275,1076
34.35,1173
34.425,1204
34.5,1362
34.575,1579
34.65,2551
34.725,7136
34.8,6927
34.875,2419
34.95,1567
35.025,1311
35.1,1175
35.175,1103
35.25,1015
35.325,1076
35.4,1021
35.475,1011
35.55,952
35.625,982
35.7,981
35.775,928
35.85,962
35.925,956
36,970
36.075,1016
36.15,968
36.225,895
36.3,962
36.375,952
36.45,933
36.525,910
36.6,924
36.675,864
36.75,914
36.825,903
36.9,846
36.975,934
37.05,972
37.125,942
37.2,999
37.275,1051
37.35,1157
37.425,1467
37.5,2829
37.575,7548
37.65,3350
37.725,1912
37.8,2267
37.875,4261
37.95,16209
38.025,17122
38.1,4100
38.175,2014
38.25,1454
38.325,1311
38.4,1163
38.475,1107
38.55,1028
38.625,1081
38.7,994
38.775,1055
38.85,1033
38.925,1019
39,1120
39.075,1593
39.15,4861
39.225,6411
39.3,1839
39.375,1231
39.45,1056
39.525,1002
39.6,1019
39.675,943
39.75,932
39.825,976
39.9,846
39.975,887
40.05,928
40.125,877
40.2,798
40.275,879
40.35,886
40.425,909
40.5,834
40.575,817
40.65,858
40.725,890
40.8,856
40.875,843
40.95,827
41.025,840
41.1,845
41.175,842
41.25,919
41.325,860
41.4,844
41.475,922
41.55,903
41.625,905
41.7,938
41.775,896
41.85,979
41.925,887
42,894
42.075,925
42.15,1016
42.225,1051
42.3,1270
42.375,1491
42.45,2330
42.525,7998
42.6,16607
42.675,4690
42.75,1818
42.825,1437
42.9,1256
42.975,1044
43.05,1043
43.125,964
43.2,964
43.275,1016
43.35,1045
43.425,1129
43.5,1315
43.575,1878
43.65,5088
43.725,5940
43.8,2063
43.875,1405
43.95,1285
44.025,1854
44.1,3778
44.175,3321
44.25,1500
44.325,1113
44.4,947
44.475,950
44.55,894
44.625,854
44.7,838
44.775,876
44.85,838
44.925,873
45,837
45.075,855
45.15,776
45.225,826
45.3,802
45.375,762
45.45,763
45.525,697
45.6,805
45.675,758
45.75,784
45.825,766
45.9,795
45.975,799
46.05,720
46.125,775
46.2,772
46.275,731
46.35,790
46.425,739
46.5,711
46.575,773
46.65,829
46.725,755
46.8,771
46.875,794
46.95,764
47.025,722
47.1,727
47.175,722
47.25,751
47.325,743
47.4,738
47.475,785
47.55,743
47.625,779
47.7,792
47.775,763
47.85,832
47.925,865
48,958
48.075,956
48.15,1478
48.225,2833
48.3,2309
48.375,1241
48.45,932
48.525,821
48.6,785
48.675,712
48.75,824
48.825,767
48.9,748
48.975,752
49.05,697
49.125,747
49.2,737
49.275,735
49.35,691
49.425,718
49.5,718
49.575,730
49.65,749
49.725,744
49.8,751
49.875,719
49.95,732
50.025,782
50.1,763
50.175,748
50.25,758
50.325,704
50.4,723
50.475,720
50.55,741
50.625,714
50.7,742
50.775,710
50.85,726
50.925,748
51,668
51.075,670
51.15,710
51.225,713
51.3,760
51.375,745
51.45,833
51.525,918
51.6,1049
51.675,2468
51.75,3850
51.825,1444
51.9,948
51.975,842
52.05,784
52.125,799
52.2,715
52.275,691
52.35,677
52.425,702
52.5,631
52.575,702
52.65,636
52.725,685
52.8,626
52.875,662
52.95,685
53.025,819
53.1,704
53.175,729
53.25,758
53.325,713
53.4,720
53.475,701
53.55,699
53.625,695
53.7,641
53.775,721
53.85,689
53.925,727
54,654
54.075,713
54.15,695
54.225,693
54.3,707
54.375,799
54.45,1335
54.525,1717
54.6,914
54.675,767
54.75,723
54.825,746
54.9,721
54.975,643
55.05,660
55.125,667
55.2,673
55.275,744
55.35,705
55.425,699
55.5,651
55.575,643
55.65,655
55.725,689
55.8,691
55.875,697
55.95,716
56.025,725
56.1,654
56.175,717
56.25,724
56.325,696
56.4,674
56.475,647
56.55,696
56.625,682
56.7,682
56.775,669
56.85,665
56.925,703
57,668
57.075,671
57.15,704
57.225,701
57.3,755
57.375,737
57.45,796
57.525,793
57.6,958
57.675,1413
57.75,3970
57.825,3841
57.9,1381
57.975,971
58.05,790
58.125,813
58.2,669
58.275,758
58.35,765
58.425,768
58.5,703
58.575,715
58.65,606
58.725,675
58.8,693
58.875,738
58.95,838
59.025,837
59.1,976
59.175,1126
59.25,1835
59.325,3091
59.4,1733
59.475,1005
59.55,836
59.625,852
59.7,764
59.775,684
59.85,713
59.925,722
60,698
60.075,742
60.15,685
60.225,729
60.3,838
60.375,1169
60.45,1277
60.525,756
60.6,749
60.675,692
60.75,748
60.825,708
60.9,716
60.975,630
61.05,678
61.125,722
61.2,756
61.275,887
61.35,1042
61.425,1782
61.5,4207
61.575,2998
61.65,1344
61.725,951
61.8,825
61.875,731
61.95,725
62.025,713
62.1,675
62.175,651
62.25,684
62.325,672
62.4,680
62.475,648
62.55,705
62.625,639
62.7,700
62.775,661
62.85,639
62.925,635
63,624
63.075,609
63.15,667
63.225,698
63.3,636
63.375,656
63.45,635
63.525,660
63.6,672
63.675,767
63.75,1038
63.825,1079
63.9,790
63.975,658
64.05,688
64.125,613
64.2,670
64.275,732
64.35,652
64.425,685
64.5,695
64.575,648
64.65,640
64.725,658
64.8,691
64.875,656
64.95,635
65.025,703
65.1,691
65.175,692
65.25,734
65.325,779
65.4,809
65.475,792
65.55,1184
65.625,2284
65.7,3176
65.775,1465
65.85,1033
65.925,1050
66,1504
66.075,1139
66.15,847
66.225,750
66.3,723
66.375,645
66.45,681
66.525,692
66.6,651
66.675,696
66.75,646
66.825,662
66.9,646
66.975,619
67.05,699
67.125,650
67.2,668
67.275,700
67.35,717
67.425,734
67.5,851
67.575,961
67.65,1188
67.725,2245
67.8,5380
67.875,4045
67.95,1644
68.025,1085
68.1,893
68.175,830
68.25,719
68.325,688
68.4,701
68.475,687
68.55,674
68.625,660
68.7,635
68.775,611
68.85,617
68.925,683
69,635
69.075,599
69.15,651
69.225,573
69.3,687
69.375,646
69.45,622
69.525,621
69.6,676
69.675,726
69.75,739
69.825,715
69.9,846
69.975,964
70.05,1231
70.125,1900
70.2,5023
70.275,6199
70.35,2320
70.425,1249
70.5,945
70.575,844
70.65,820
70.725,730
70.8,704
70.875,695
70.95,753
71.025,749
71.1,686
71.175,669
71.25,707
71.325,701
71.4,636
71.475,691
71.55,696
71.625,628
71.7,663
71.775,642
71.85,735
71.925,800
72,1108
72.075,1510
72.15,898
72.225,737
72.3,645
72.375,639
72.45,648
72.525,642
72.6,615
72.675,611
72.75,590
72.825,588
72.9,577
72.975,663
73.05,627
73.125,651
73.2,697
73.275,735
73.35,927
73.425,732
73.5,655
73.575,617
73.65,562
73.725,628
73.8,654
73.875,584
73.95,609
74.025,589
74.1,646
74.175,618
74.25,696
74.325,880
74.4,935
74.475,717
74.55,639
74.625,642
74.7,582
74.775,602
74.85,618
74.925,653
75,609
75.075,593
75.15,628
75.225,629
75.3,619
75.375,797
75.45,1042
75.525,867
75.6,684
75.675,691
75.75,649
75.825,587
75.9,643
75.975,622
76.05,641
76.125,570
76.2,569
76.275,573
76.35,557
76.425,601
76.5,634
76.575,596
76.65,617
76.725,594
76.8,603
76.875,581
76.95,559
77.025,623
77.1,592
77.175,609
77.25,631
77.325,571
77.4,558
77.475,543
77.55,592
77.625,612
77.7,605
77.775,588
77.85,575
77.925,613
78,612
78.075,627
78.15,654
78.225,626
78.3,671
78.375,763
78.45,1088
78.525,1402
78.6,970
78.675,779
78.75,703
78.825,650
78.9,662
78.975,642
79.05,610
79.125,635
79.2,703
79.275,687
79.35,673
79.425,749
79.5,805
79.575,771
79.65,630
79.725,588
79.8,606
79.875,594
79.95,617
80.025,663
80.1,672
80.175,892
80.25,872
80.325,719
80.4,673
80.475,703
80.55,666
80.625,674
80.7,724
80.775,716
80.85,664
80.925,736
81,838
81.075,998
81.15,1550
81.225,2733
81.3,1879
81.375,985
81.45,791
81.525,744
81.6,656
81.675,679
81.75,647
81.825,583
81.9,651
81.975,636
82.05,619
82.125,618
82.2,559
82.275,638
82.35,710
82.425,761
82.5,880
82.575,791
82.65,652
82.725,635
82.8,592
82.875,626
82.95,636
83.025,573
83.1,634
83.175,634
83.25,681
83.325,882
83.4,1191
83.475,1738
83.55,1204
83.625,830
83.7,697
83.775,732
83.85,661
83.925,709
84,681
84.075,786
84.15,1096
84.225,1768
84.3,1455
84.375,905
84.45,682
84.525,685
84.6,689
84.675,664
84.75,573
84.825,606
84.9,569
84.975,573
85.05,573
85.125,534
85.2,580
85.275,570
85.35,605
85.425,588
85.5,559
85.575,572
85.65,545
85.725,543
85.8,587
85.875,557
85.95,576
86.025,571
86.1,602
86.175,606
86.25,590
86.325,563
86.4,620
86.475,586
86.55,542
86.625,563
86.7,561
86.775,595
86.85,592
86.925,533
87,621
87.075,635
87.15,796
87.225,917
87.3,940
87.375,779
87.45,833
87.525,800
87.6,762
87.675,631
87.75,628
87.825,631
87.9,589
87.975,581
88.05,642
88.125,729
88.2,804
88.275,935
88.35,1387
88.425,2584
88.5,2745
88.575,1382
88.65,900
88.725,841
88.8,682
88.875,704
88.95,643
89.025,606
89.1,658
89.175,522
89.25,603
89.325,632
89.4,651
89.475,611
89.55,601
89.625,572
89.7,559
89.775,557
89.85,562
89.925,537
90,557
90.075,551
90.15,616
90.225,545
90.3,572
90.375,520
90.45,562
90.525,624
90.6,566
90.675,581
90.75,631
90.825,562
90.9,550
90.975,581
91.05,522
91.125,540
91.2,551
91.275,554
91.35,555
91.425,563
91.5,546
91.575,556
91.65,557
91.725,518
91.8,538
91.875,601
91.95,574
92.025,528
92.1,537
92.175,575
92.25,552
92.325,601
92.4,711
92.475,572
92.55,565
92.625,563
92.7,559
92.775,600
92.85,582
92.925,544
93,622
93.075,684
93.15,862
93.225,892
93.3,703
93.375,574
93.45,566
93.525,587
93.6,522
93.675,584
93.75,534
93.825,559
93.9,616
93.975,559
94.05,603
94.125,546
94.2,504
94.275,552
94.35,589
94.425,577
94.5,544
94.575,561
94.65,588
94.725,625
94.8,655
94.875,604
94.95,752
95.025,1021
95.1,1691
95.175,1529
95.25,939
95.325,763
95.4,660
95.475,678
95.55,656
95.625,649
95.7,652
95.775,588
95.85,533
95.925,567
96,571
96.075,573
96.15,587
96.225,584
96.3,683
96.375,870
96.45,937
96.525,705
96.6,665
96.675,677
96.75,579
96.825,569
96.9,548
96.975,567
97.05,596
97.125,657
97.2,724
97.275,780
97.35,1007
97.425,1193
97.5,854
97.575,709
97.65,582
97.725,626
97.8,655
97.875,616
97.95,656
98.025,649
98.1,697
98.175,781
98.25,877
98.325,1575
98.4,1651
98.475,1087
98.55,738
98.625,738
98.7,629
98.775,546
98.85,572
98.925,550
99,568
99.075,534
99.15,575
99.225,540
99.3,543
99.375,564
99.45,545
99.525,509
99.6,468
99.675,598
99.75,487
99.825,498
99.9,530
99.975,477
100.05,513
100.125,522
100.2,558
100.275,530
100.35,604
100.425,645
100.5,618
100.575,537
100.65,554
100.725,553
100.8,525
100.875,535
100.95,615
101.025,668
101.1,654
101.175,547
101.25,523
101.325,497
101.4,561
101.475,548
101.55,507
101.625,566
101.7,554
101.775,606
101.85,617
101.925,572
102,662
102.075,800
102.15,1025
102.225,931
102.3,777
102.375,706
102.45,841
102.525,784
102.6,616
102.675,621
102.75,595
102.825,599
102.9,593
102.975,508
103.05,543
103.125,516
103.2,536
103.275,557
103.35,567
103.425,470
103.5,528
103.575,534
103.65,527
103.725,479
103.8,525
103.875,502
103.95,539
104.025,470
104.1,504
104.175,532
104.25,497
104.325,476
104.4,493
104.475,492
104.55,497
104.625,506
104.7,534
104.775,500
104.85,549
104.925,538
105,510
105.075,610
105.15,653
105.225,822
105.3,915
105.375,704
105.45,622
105.525,589
105.6,504
105.675,495
105.75,473
105.825,519
105.9,555
105.975,468
106.05,482
106.125,474
106.2,476
106.275,433
106.35,515
106.425,476
106.5,453
106.575,503
106.65,478
106.725,491
106.8,507
106.875,486
106.95,566
107.025,542
107.1,592
107.175,601
107.25,600
107.325,544
107.4,515
107.475,492
107.55,522
107.625,474
107.7,476
107.775,467
107.85,527
107.925,511
108,480
108.075,550
108.15,620
108.225,654
108.3,801
108.375,806
108.45,587
108.525,584
108.6,506
108.675,547
108.75,517
108.825,505
108.9,472
108.975,504
109.05,467
109.125,451
109.2,462
109.275,463
109.35,475
109.425,467
109.5,503
109.575,514
109.65,517
109.725,543
109.8,512
109.875,481
109.95,489
110.025,475
110.1,527
110.175,540
110.25,560
110.325,637
110.4,594
110.475,497
110.55,499
110.625,541