File: data/xrd_icdd_PDF/00-052-1687 (PD3).csv
5,1347
5.1,1341
5.2,1326
5.3,1227
5.4,1257
5.5,1269
5.6,1257
5.7,1233
5.8,1209
5.9,1137
6,1149
6.1,1086
6.2,1110
6.3,1131
6.4,1167
6.5,1149
6.6,1131
6.7,1131
6.8,1128
6.9,1074
7,1143
7.1,1131
7.2,1077
7.3,1092
7.4,1074
7.5,1089
7.6,1026
7.7,1065
7.8,1059
7.9,1005
8,1041
8.1,1077
8.2,1053
8.3,1041
8.4,1029
8.5,1014
8.6,1074
8.7,1011
8.8,999
8.9,1077
9,1005
9.1,1035
9.2,993
9.3,963
9.4,1008
9.5,1014
9.6,996
9.7,981
9.8,1014
9.9,999
10,981
10.1,948
10.2,993
10.3,969
10.4,942
10.5,1026
10.6,966
10.7,1005
10.8,963
10.9,1032
11,933
11.1,1014
11.2,993
11.3,951
11.4,990
11.5,954
11.6,981
11.7,984
11.8,1014
11.9,1071
12,1206
12.1,1356
12.2,2502
12.3,27309
12.4,4437
12.5,1491
12.6,1200
12.7,1125
12.8,1050
12.9,1080
13,1011
13.1,1047
13.2,1059
13.3,1035
13.4,1047
13.5,1005
13.6,1017
13.7,1032
13.8,942
13.9,990
14,984
14.1,921
14.2,930
14.3,969
14.4,909
14.5,990
14.6,933
14.7,909
14.8,951
14.9,879
15,888
15.1,903
15.2,936
15.3,954
15.4,942
15.5,921
15.6,909
15.7,930
15.8,909
15.9,864
16,909
16.1,882
16.2,915
16.3,891
16.4,939
16.5,906
16.6,939
16.7,903
16.8,924
16.9,918
17,954
17.1,963
17.2,957
17.3,1029
17.4,2280
17.5,3126
17.6,981
17.7,882
17.8,897
17.9,855
18,909
18.1,885
18.2,855
18.3,885
18.4,894
18.5,858
18.6,897
18.7,849
18.8,816
18.9,876
19,852
19.1,876
19.2,891
19.3,885
19.4,876
19.5,831
19.6,870
19.7,837
19.8,846
19.9,783
20,819
20.1,858
20.2,855
20.3,867
20.4,864
20.5,840
20.6,843
20.7,876
20.8,876
20.9,897
21,858
21.1,939
21.2,906
21.3,1371
21.4,9891
21.5,3705
21.6,1101
21.7,909
21.8,918
21.9,873
22,882
22.1,885
22.2,828
22.3,849
22.4,882
22.5,813
22.6,819
22.7,858
22.8,858
22.9,804
23,849
23.1,840
23.2,801
23.3,822
23.4,840
23.5,831
23.6,819
23.7,798
23.8,795
23.9,780
24,807
24.1,876
24.2,849
24.3,852
24.4,870
24.5,972
24.6,1104
24.7,2448
24.8,12702
24.9,2220
25,1023
25.1,960
25.2,852
25.3,831
25.4,813
25.5,837
25.6,777
25.7,783
25.8,756
25.9,786
26,801
26.1,780
26.2,807
26.3,783
26.4,789
26.5,795
26.6,837
26.7,840
26.8,861
26.9,852
27,903
27.1,930
27.2,942
27.3,1038
27.4,1128
27.5,1467
27.6,2253
27.7,11256
27.8,29898
27.9,4233
28,1722
28.1,1308
28.2,1062
28.3,951
28.4,915
28.5,867
28.6,855
28.7,849
28.8,801
28.9,837
29,864
29.1,846
29.2,834
29.3,819
29.4,849
29.5,876
29.6,969
29.7,990
29.8,1035
29.9,1044
30,1170
30.1,1287
30.2,1710
30.3,3093
30.4,12051
30.5,46440
30.6,9501
30.7,2328
30.8,1605
30.9,1272
31,1152
31.1,1020
31.2,984
31.3,984
31.4,963
31.5,948
31.6,855
31.7,870
31.8,921
31.9,846
32,822
32.1,849
32.2,840
32.3,825
32.4,891
32.5,894
32.6,909
32.7,975
32.8,1125
32.9,2079
33,7956
33.1,2898
33.2,1098
33.3,915
33.4,864
33.5,855
33.6,783
33.7,807
33.8,783
33.9,783
34,777
34.1,780
34.2,822
34.3,813
34.4,807
34.5,750
34.6,804
34.7,762
34.8,747
34.9,822
35,807
35.1,957
35.2,1296
35.3,9840
35.4,6909
35.5,1302
35.6,960
35.7,828
35.8,795
35.9,795
36,777
36.1,717
36.2,738
36.3,798
36.4,762
36.5,783
36.6,798
36.7,783
36.8,780
36.9,837
37,882
37.1,909
37.2,969
37.3,1176
37.4,2076
37.5,12312
37.6,12630
37.7,3888
37.8,1470
37.9,1095
38,981
38.1,846
38.2,798
38.3,756
38.4,735
38.5,741
38.6,783
38.7,723
38.8,753
38.9,741
39,717
39.1,720
39.2,732
39.3,762
39.4,720
39.5,663
39.6,714
39.7,690
39.8,657
39.9,705
40,717
40.1,699
40.2,675
40.3,696
40.4,648
40.5,696
40.6,672
40.7,675
40.8,666
40.9,681
41,681
41.1,681
41.2,648
41.3,651
41.4,705
41.5,741
41.6,1002
41.7,2562
41.8,1821
41.9,786
42,687
42.1,693
42.2,660
42.3,660
42.4,705
42.5,690
42.6,711
42.7,672
42.8,687
42.9,732
43,753
43.1,750
43.2,762
43.3,786
43.4,978
43.5,1410
43.6,11349
43.7,5838
43.8,2544
43.9,1107
44,822
44.1,828
44.2,738
44.3,687
44.4,675
44.5,711
44.6,699
44.7,681
44.8,687
44.9,720
45,714
45.1,747
45.2,726
45.3,801
45.4,1134
45.5,7431
45.6,3621
45.7,1164
45.8,801
45.9,759
46,723
46.1,678
46.2,705
46.3,678
46.4,669
46.5,681
46.6,690
46.7,708
46.8,672
46.9,732
47,747
47.1,807
47.2,1059
47.3,5811
47.4,2568
47.5,1827
47.6,888
47.7,750
47.8,780
47.9,714
48,741
48.1,747
48.2,744
48.3,717
48.4,753
48.5,765
48.6,789
48.7,867
48.8,954
48.9,1125
49,2490
49.1,18930
49.2,9228
49.3,2118
49.4,1113
49.5,945
49.6,885
49.7,783
49.8,696
49.9,747
50,711
50.1,732
50.2,729
50.3,705
50.4,738
50.5,744
50.6,801
50.7,1014
50.8,5253
50.9,1824
51,1314
51.1,813
51.2,738
51.3,711
51.4,705
51.5,681
51.6,657
51.7,687
51.8,690
51.9,729
52,711
52.1,738
52.2,774
52.3,951
52.4,1509
52.5,10044
52.6,3978
52.7,1692
52.8,942
52.9,792
53,714
53.1,657
53.2,675
53.3,657
53.4,654
53.5,669
53.6,651
53.7,651
53.8,639
53.9,669
54,693
54.1,969
54.2,807
54.3,969
54.4,666
54.5,657
54.6,657
54.7,651
54.8,648
54.9,627
55,660
55.1,669
55.2,660
55.3,672
55.4,663
55.5,693
55.6,750
55.7,1452
55.8,1512
55.9,1938
56,741
56.1,699
56.2,660
56.3,648
56.4,660
56.5,660
56.6,657
56.7,660
56.8,636
56.9,696
57,690
57.1,741
57.2,816
57.3,2214
57.4,1179
57.5,1653
57.6,786
57.7,777
57.8,765
57.9,774
58,735
58.1,735
58.2,759
58.3,753
58.4,780
58.5,954
58.6,1260
58.7,1599
58.8,3954
58.9,21606
59,7248
59.1,4251
59.2,1449
59.3,1128
59.4,906
59.5,852
59.6,807
59.7,735
59.8,768
59.9,807
60,828
60.1,909
60.2,1023
60.3,1446
60.4,12390
60.5,2730
60.6,6462
60.7,1170
60.8,858
60.9,744
61,735
61.1,690
61.2,714
61.3,693
61.4,684
61.5,687
61.6,687
61.7,708
61.8,735
61.9,1308
62,798
62.1,936
62.2,693
62.3,672
62.4,672
62.5,678
62.6,672
62.7,663
62.8,681
62.9,696
63,744
63.1,714
63.2,816
63.3,1173
63.4,6132
63.5,1587
63.6,2715
63.7,903
63.8,750
63.9,717
64,723
64.1,738
64.2,717
64.3,687
64.4,687
64.5,744
64.6,813
64.7,891
64.8,2097
64.9,3543
65,2193
65.1,1596
65.2,810
65.3,750
65.4,735
65.5,651
65.6,633
65.7,669
65.8,663
65.9,645
66,633
66.1,606
66.2,615
66.3,645
66.4,630
66.5,663
66.6,627
66.7,615
66.8,672
66.9,684
67,660
67.1,675
67.2,666
67.3,726
67.4,765
67.5,822
67.6,1038
67.7,3477
67.8,2784
67.9,2718
68,1530
68.1,846
68.2,726
68.3,681
68.4,660
68.5,666
68.6,636
68.7,651
68.8,639
68.9,645
69,642
69.1,738
69.2,795
69.3,711
69.4,726
69.5,630
69.6,642
69.7,636
69.8,636
69.9,639
70,618
70.1,624
70.2,630
70.3,663
70.4,729
70.5,1251
70.6,1869
70.7,1062
70.8,1344
70.9,714
71,684
71.1,654
71.2,657
71.3,663
71.4,633
71.5,654
71.6,675
71.7,732
71.8,828
71.9,1854
72,2424
72.1,1245
72.2,1743
72.3,765
72.4,702
72.5,675
72.6,657
72.7,660
72.8,666
72.9,651
73,684
73.1,645
73.2,762
73.3,1722
73.4,1161
73.5,1098
73.6,969
73.7,696
73.8,675
73.9,630
74,633
74.1,642
74.2,645
74.3,636
74.4,663
74.5,675
74.6,786
74.7,2211
74.8,894
74.9,1284
75,831
75.1,699
75.2,642
75.3,654
75.4,651
75.5,669
75.6,696
75.7,699
75.8,807
75.9,972
76,2226
76.1,5556
76.2,1629
76.3,4083
76.4,1149
76.5,777
76.6,714
76.7,678
76.8,657
76.9,663
77,642
77.1,663
77.2,645
77.3,651
77.4,744
77.5,684
77.6,654
77.7,663
77.8,627
77.9,615
78,627
78.1,615
78.2,603
78.3,606
78.4,636
78.5,615
78.6,660
78.7,897
78.8,1524
78.9,792
79,1218
79.1,744
79.2,666
79.3,636
79.4,669
79.5,645
79.6,660
79.7,630
79.8,624
79.9,666
80,771
80.1,1980
80.2,864
80.3,960
80.4,966
80.5,669
80.6,660
80.7,651
80.8,651
80.9,645
81,681
81.1,651
81.2,756
81.3,936
81.4,2685
81.5,2550
81.6,1233
81.7,2883
81.8,954
81.9,714
82,657
82.1,630
82.2,654
82.3,654
82.4,615
82.5,618
82.6,597
82.7,621
82.8,618
82.9,621
83,645
83.1,600
83.2,600
83.3,612
83.4,609
83.5,630
83.6,621
83.7,651
83.8,648
83.9,723
84,1092
84.1,4497
84.2,1269
84.3,1305
84.4,1923
84.5,765
84.6,678
84.7,621
84.8,627
84.9,621
85,585
85.1,597
85.2,558
85.3,564
85.4,588
85.5,555
85.6,585
85.7,576
85.8,558
85.9,579
86,606
86.1,576
86.2,585
86.3,660
86.4,633
86.5,678
86.6,807
86.7,2049
86.8,2325
86.9,996
87,1989
87.1,1062
87.2,690
87.3,612
87.4,591
87.5,567
87.6,540
87.7,591
87.8,555
87.9,537
88,555
88.1,591
88.2,519
88.3,540
88.4,558
88.5,537
88.6,561
88.7,588
88.8,558
88.9,561
89,555
89.1,564
89.2,606
89.3,774
89.4,1707
89.5,720
89.6,720
89.7,1086
89.8,615
89.9,582
90,564
90.1,564
90.2,567
90.3,564
90.4,576
90.5,594
90.6,645
90.7,1038
90.8,669
90.9,618
91,831
91.1,612
91.2,561
91.3,576
91.4,573
91.5,591
91.6,603
91.7,630
91.8,648
91.9,819
92,2559
92.1,1290
92.2,852
92.3,1599
92.4,912
92.5,651
92.6,591
92.7,570
92.8,570
92.9,579
93,591
93.1,606
93.2,639
93.3,903
93.4,909
93.5,651
93.6,786
93.7,780
93.8,579
93.9,585
94,576
94.1,570
94.2,567
94.3,588
94.4,615
94.5,654
94.6,1101
94.7,1734
94.8,771
94.9,846
95,1263
95.1,675
95.2,588
95.3,576
95.4,588
95.5,615
95.6,609
95.7,618
95.8,651
95.9,810
96,1572
96.1,771
96.2,735
96.3,1110
96.4,690
96.5,624
96.6,582
96.7,606
96.8,615
96.9,621
97,582
97.1,690
97.2,846
97.3,2487
97.4,1116
97.5,780
97.6,1242
97.7,1053
97.8,642
97.9,615
98,570
98.1,549
98.2,579
98.3,564
98.4,573
98.5,618
98.6,810
98.7,774
98.8,606
98.9,618
99,747
99.1,600
99.2,600
99.3,597
99.4,582
99.5,606
99.6,603
99.7,618
99.8,675
99.9,969
100,1980
100.1,843
100.2,744
100.3,1179
100.4,786
100.5,642
100.6,588
100.7,573
100.8,570
100.9,579
101,558
101.1,588
101.2,549
101.3,576
101.4,582
101.5,552
101.6,555
101.7,576
101.8,570
101.9,576
102,594
102.1,579
102.2,567
102.3,603
102.4,612
102.5,672
102.6,972
102.7,1773
102.8,756
102.9,714
103,1089
103.1,846
103.2,648
103.3,594
103.4,603
103.5,603
103.6,597
103.7,630
103.8,654
103.9,810
104,1827
104.1,1293
104.2,756
104.3,801
104.4,1338
104.5,741
104.6,657
104.7,600
104.8,588
104.9,597
105,573
105.1,546
105.2,585
105.3,636
105.4,813
105.5,627
105.6,603
105.7,633
105.8,660
105.9,606
106,582
106.1,564
106.2,576
106.3,555
106.4,576
106.5,591
106.6,654
106.7,837
106.8,1089
106.9,687
107,651
107.1,786
107.2,771
107.3,648
107.4,648
107.5,648
107.6,642
107.7,645
107.8,687
107.9,795
108,1128
108.1,3156
108.2,3033
108.3,1137
108.4,1068
108.5,2136
108.6,1701
108.7,885
108.8,705
108.9,651
109,624
109.1,576
109.2,561
109.3,582
109.4,585
109.5,597
109.6,570
109.7,597
109.8,591
109.9,558
110,546
110.1,582
110.2,573
110.3,564
110.4,573
110.5,567
110.6,597
110.7,618
110.8,642
110.9,1059
111,936
111.1,651
111.2,615
111.3,765
111.4,798
111.5,609
111.6,603
111.7,591
111.8,573
111.9,567
112,561
112.1,585
112.2,594
112.3,699
112.4,744
112.5,576
112.6,567
112.7,606
112.8,687
112.9,600
113,570
113.1,582
113.2,573
113.3,597
113.4,573
113.5,600
113.6,600
113.7,738
113.8,1254
113.9,732
114,657
114.1,645
114.2,810
114.3,720
114.4,591
114.5,600
114.6,585
114.7,564
114.8,567
114.9,558
115,576
115.1,621
115.2,822
115.3,828
115.4,627
115.5,609
115.6,630
115.7,783
115.8,633
115.9,585
116,612
116.1,585
116.2,573
116.3,603
116.4,621
116.5,657
116.6,759
116.7,1551
116.8,999
116.9,684
117,648
117.1,828
117.2,1032
117.3,696
117.4,564
117.5,558
117.6,576
117.7,576
117.8,591
117.9,570
118,588
118.1,576
118.2,651
118.3,612
118.4,591
118.5,573
118.6,567
118.7,618
118.8,591
118.9,591
119,564
119.1,570
119.2,570
119.3,555
119.4,582
119.5,612
119.6,708
119.7,1110
119.8,783
119.9,648
120,624
120.1,663
120.2,819
120.3,651
120.4,597
120.5,588
120.6,576
120.7,597
120.8,576
120.9,555
121,588
121.1,621
121.2,795
121.3,756
121.4,621
121.5,612
121.6,609
121.7,663
121.8,675
121.9,597
122,585
122.1,609
122.2,600
122.3,603
122.4,624
122.5,645
122.6,720
122.7,987
122.8,1713
122.9,996
123,693
123.1,672
123.2,774
123.3,1134
123.4,912
123.5,672
123.6,630
123.7,621
123.8,630
123.9,588
124,588
124.1,570
124.2,594
124.3,609
124.4,609
124.5,612
124.6,624
124.7,627
124.8,621
124.9,636
125,618
125.1,645
125.2,627
125.3,675
125.4,708
125.5,714
125.6,714
125.7,873
125.8,1140
125.9,2163
126,4206
126.1,1944
126.2,1161
126.3,999
126.4,1095
126.5,1953
126.6,2013
126.7,1131
126.8,837
126.9,747
127,729
127.1,702
127.2,675
127.3,675
127.4,669
127.5,747
127.6,963
127.7,879
127.8,789
127.9,666
128,651
128.1,726
128.2,843
128.3,735
128.4,672
128.5,582
128.6,633
128.7,660
128.8,630
128.9,696
129,699
129.1,834
129.2,1161
129.3,2373
129.4,1575
129.5,960
129.6,798
129.7,792
129.8,876
129.9,1494
130,1182
130.1,792
130.2,669
130.3,645
130.4,636
130.5,654
130.6,645
130.7,636
130.8,669
130.9,744
131,1092
131.1,963
131.2,741
131.3,672
131.4,657
131.5,684
131.6,771
131.7,864
131.8,696
131.9,645
132,597
132.1,624
132.2,603
132.3,603
132.4,603
132.5,612
132.6,612
132.7,690
132.8,810
132.9,735
133,645
133.1,618
133.2,600
133.3,636
133.4,663
133.5,705
133.6,654
133.7,606
133.8,621
133.9,594
134,576
134.1,606
134.2,606
134.3,600
134.4,585
134.5,618
134.6,639
134.7,603
134.8,594
134.9,636
135,600
135.1,594
135.2,615
135.3,606
135.4,597
135.5,618
135.6,603
135.7,630
135.8,609
135.9,624
136,645
136.1,669
136.2,675
136.3,810
136.4,1074
136.5,1947
136.6,1527
136.7,984
136.8,813
136.9,729
137,768
137.1,870
137.2,1188
137.3,1230
137.4,867
137.5,702
137.6,642
137.7,687
137.8,660
137.9,663
138,678
138.1,639
138.2,687
138.3,762
138.4,963
138.5,1116
138.6,828
138.7,738
138.8,666
138.9,696
139,663
139.1,711
139.2,849
139.3,816
139.4,723
139.5,666
139.6,660
139.7,603
139.8,660
139.9,636
140,636