File: data/xrd_icdd_PDF/00-060-0507 (PD3).csv
5.011,18672
5.096,18725
5.181,18562
5.266,18465
5.351,18207
5.436,17863
5.521,17553
5.606,17394
5.691,16981
5.776,16840
5.861,16797
5.946,16535
6.031,16181
6.116,16277
6.201,16189
6.286,15890
6.371,15755
6.456,15770
6.541,15410
6.626,15301
6.711,15497
6.796,15532
6.881,15172
6.966,14774
7.051,14796
7.136,14467
7.221,14536
7.306,14279
7.391,14342
7.476,14292
7.561,14212
7.646,14032
7.731,13748
7.816,13825
7.901,13728
7.986,13560
8.071,13773
8.156,13446
8.241,13416
8.326,13433
8.411,13383
8.496,13300
8.581,13258
8.666,13477
8.751,13551
8.836,13333
8.921,13498
9.006,13847
9.091,14982
9.176,15663
9.261,18152
9.346,22660
9.431,30046
9.516,45317
9.601,76929
9.686,170436
9.771,132764
9.856,23067
9.941,16784
10.026,14874
10.111,13953
10.196,13354
10.281,13020
10.366,12724
10.451,12657
10.536,12500
10.621,12174
10.706,12051
10.791,11802
10.876,11610
10.961,11819
11.046,11476
11.131,11684
11.216,11442
11.301,11215
11.386,11026
11.471,11092
11.556,10990
11.641,10919
11.726,10783
11.811,10853
11.896,10858
11.981,10656
12.066,10631
12.151,10572
12.236,10540
12.321,10420
12.406,10326
12.491,10410
12.576,10286
12.661,10301
12.746,10256
12.831,10174
12.916,10104
13.001,9989
13.086,9985
13.171,9977
13.256,9919
13.341,9962
13.426,9937
13.511,9893
13.596,9854
13.681,9863
13.766,9809
13.851,9728
13.936,9716
14.021,9491
14.106,9667
14.191,9482
14.276,9568
14.361,9524
14.446,9329
14.531,9350
14.616,9406
14.701,9356
14.786,9415
14.871,9295
14.956,9319
15.041,9078
15.126,9194
15.211,9053
15.296,9097
15.381,9121
15.466,9058
15.551,9106
15.636,9096
15.721,9107
15.806,8935
15.891,8918
15.976,8866
16.061,8924
16.146,8904
16.231,8966
16.316,8883
16.401,8909
16.486,8844
16.571,8843
16.656,8870
16.741,8751
16.826,8737
16.911,8741
16.996,8796
17.081,8688
17.166,8772
17.251,8795
17.336,8820
17.421,8844
17.506,8867
17.591,8861
17.676,8858
17.761,8689
17.846,8861
17.931,8567
18.016,8501
18.101,8534
18.186,8622
18.271,8684
18.356,8620
18.441,8633
18.526,8896
18.611,8825
18.696,9041
18.781,9418
18.866,10324
18.951,11207
19.036,12133
19.121,14562
19.206,21594
19.291,41628
19.376,103486
19.461,347516
19.546,269989
19.631,35648
19.716,18424
19.801,12716
19.886,11549
19.971,10727
20.056,10116
20.141,9934
20.226,9815
20.311,9686
20.396,9564
20.481,9360
20.566,9224
20.651,9144
20.736,9057
20.821,8940
20.906,8837
20.991,8901
21.076,8999
21.161,8983
21.246,8809
21.331,8771
21.416,8516
21.501,8550
21.586,8443
21.671,8460
21.756,8397
21.841,8476
21.926,8389
22.011,8328
22.096,8235
22.181,8211
22.266,8126
22.351,8155
22.436,8039
22.521,8300
22.606,8565
22.691,8767
22.776,9220
22.861,9622
22.946,10154
23.031,11040
23.116,14828
23.201,21475
23.286,42449
23.371,124930
23.456,333596
23.541,93820
23.626,21226
23.711,13242
23.796,10568
23.881,9651
23.966,9241
24.051,8971
24.136,8810
24.221,8653
24.306,8488
24.391,8495
24.476,8603
24.561,8603
24.646,8460
24.731,8207
24.816,8203
24.901,8360
24.986,8339
25.071,8361
25.156,8332
25.241,8184
25.326,8074
25.411,8079
25.496,7804
25.581,8007
25.666,7795
25.751,7773
25.836,7806
25.921,7812
26.006,7800
26.091,7756
26.176,7814
26.261,7928
26.346,8095
26.431,8262
26.516,8414
26.601,8573
26.686,8774
26.771,8929
26.856,9589
26.941,11023
27.026,15060
27.111,28160
27.196,77909
27.281,215688
27.366,89289
27.451,20613
27.536,12666
27.621,10045
27.706,9133
27.791,8651
27.876,8307
27.961,8296
28.046,7955
28.131,7999
28.216,7850
28.301,7813
28.386,7853
28.471,7936
28.556,7907
28.641,7824
28.726,7887
28.811,7803
28.896,7809
28.981,8039
29.066,8267
29.151,9166
29.236,12440
29.321,24481
29.406,53891
29.491,26553
29.576,10114
29.661,8420
29.746,7710
29.831,7636
29.916,7533
30.001,7519
30.086,7471
30.171,7390
30.256,7330
30.341,7258
30.426,7244
30.511,7207
30.596,7208
30.681,7219
30.766,7159
30.851,7124
30.936,7140
31.021,7092
31.106,7169
31.191,7134
31.276,7101
31.361,7216
31.446,7253
31.531,7307
31.616,7321
31.701,7386
31.786,7316
31.871,7380
31.956,7535
32.041,7683
32.126,8081
32.211,9149
32.296,11549
32.381,23198
32.466,75341
32.551,51113
32.636,22662
32.721,37811
32.806,69423
32.891,38047
32.976,13584
33.061,10585
33.146,9709
33.231,9828
33.316,10870
33.401,12878
33.486,16151
33.571,30279
33.656,101901
33.741,249516
33.826,126371
33.911,25128
33.996,17208
34.081,12491
34.166,10521
34.251,13565
34.336,11574
34.421,8936
34.506,8254
34.591,8042
34.676,7830
34.761,7796
34.846,7666
34.931,7634
35.016,7622
35.101,7610
35.186,7639
35.271,7585
35.356,7490
35.441,7479
35.526,7424
35.611,7393
35.696,7293
35.781,7287
35.866,7166
35.951,7119
36.036,7043
36.121,6999
36.206,6967
36.291,6862
36.376,6838
36.461,7195
36.546,7217
36.631,7056
36.716,7165
36.801,7201
36.886,7237
36.971,7213
37.056,7280
37.141,7249
37.226,7212
37.311,7239
37.396,7238
37.481,7224
37.566,7253
37.651,7291
37.736,7465
37.821,7717
37.906,8657
37.991,10713
38.076,20755
38.161,40528
38.246,30966
38.331,22707
38.416,45999
38.501,28306
38.586,12348
38.671,9074
38.756,8318
38.841,8170
38.926,7940
39.011,7899
39.096,8068
39.181,8579
39.266,9782
39.351,12807
39.436,25229
39.521,89210
39.606,55568
39.691,27170
39.776,12150
39.861,9328
39.946,8059
40.031,7542
40.116,7300
40.201,7248
40.286,7121
40.371,6896
40.456,6806
40.541,6958
40.626,6808
40.711,6879
40.796,6746
40.881,6715
40.966,6748
41.051,6768
41.136,6713
41.221,6650
41.306,6490
41.391,6594
41.476,6632
41.561,6612
41.646,6754
41.731,7293
41.816,7017
41.901,6785
41.986,6539
42.071,6518
42.156,6510
42.241,6562
42.326,6483
42.411,6577
42.496,6576
42.581,6488
42.666,6544
42.751,6440
42.836,6504
42.921,6422
43.006,6446
43.091,6486
43.176,6474
43.261,6330
43.346,6454
43.431,6437
43.516,6496
43.601,6450
43.686,6357
43.771,6483
43.856,6591
43.941,6451
44.026,6492
44.111,6528
44.196,6733
44.281,7339
44.366,8449
44.451,7863
44.536,8037
44.621,8404
44.706,7686
44.791,6731
44.876,6466
44.961,6484
45.046,6325
45.131,6479
45.216,6544
45.301,6554
45.386,6420
45.471,6478
45.556,6470
45.641,6521
45.726,6580
45.811,6598
45.896,6505
45.981,6493
46.066,6381
46.151,6539
46.236,6620
46.321,6779
46.406,7033
46.491,8020
46.576,9634
46.661,14498
46.746,45291
46.831,81151
46.916,55798
47.001,19986
47.086,11294
47.171,8669
47.256,7555
47.341,6859
47.426,6774
47.511,6890
47.596,6755
47.681,6943
47.766,7225
47.851,8882
47.936,11317
48.021,9651
48.106,7485
48.191,6900
48.276,6360
48.361,6350
48.446,6387
48.531,6388
48.616,6336
48.701,6468
48.786,6303
48.871,6488
48.956,6526
49.041,6773
49.126,6715
49.211,6825
49.296,6722
49.381,6765
49.466,6869
49.551,6963
49.636,7276
49.721,7818
49.806,9210
49.891,13775
49.976,38965
50.061,27168
50.146,27834
50.231,10834
50.316,8522
50.401,8060
50.486,8474
50.571,10371
50.656,13852
50.741,34174
50.826,100017
50.911,49825
50.996,43284
51.081,33803
51.166,52585
51.251,33116
51.336,19483
51.421,10589
51.506,8928
51.591,8045
51.676,7993
51.761,8185
51.846,8868
51.931,12182
52.016,30685
52.101,23945
52.186,32187
52.271,36658
52.356,21004
52.441,17164
52.526,10707
52.611,10826
52.696,18539
52.781,35584
52.866,22180
52.951,18030
53.036,11905
53.121,18553
53.206,30457
53.291,18553
53.376,14350
53.461,8570
53.546,7890
53.631,7367
53.716,7082
53.801,6948
53.886,6874
53.971,6892
54.056,6798
54.141,6551
54.226,6599
54.311,6766
54.396,6778
54.481,7160
54.566,7487
54.651,8654
54.736,15593
54.821,23273
54.906,17075
54.991,13904
55.076,11454
55.161,20612
55.246,21873
55.331,17332
55.416,11793
55.501,8224
55.586,7403
55.671,7204
55.756,6870
55.841,6866
55.926,7082
56.011,7290
56.096,8357
56.181,14434
56.266,13888
56.351,13329
56.436,9907
56.521,7384
56.606,7089
56.691,6987
56.776,6890
56.861,6926
56.946,7010
57.031,6745
57.116,6787
57.201,6491
57.286,6453
57.371,6701
57.456,6497
57.541,6603
57.626,6643
57.711,6443
57.796,6436
57.881,6360
57.966,6740
58.051,6807
58.136,7038
58.221,6911
58.306,7234
58.391,7585
58.476,8174
58.561,10334
58.646,22960
58.731,37527
58.816,23109
58.901,23453
58.986,17885
59.071,40012
59.156,28197
59.241,27277
59.326,15157
59.411,8834
59.496,7675
59.581,7190
59.666,6818
59.751,6819
59.836,6594
59.921,6505
60.006,6560
60.091,6362
60.176,6499
60.261,6616
60.346,6655
60.431,6610
60.516,6887
60.601,7381
60.686,8100
60.771,10763
60.856,22648
60.941,20884
61.026,26342
61.111,23186
61.196,14864
61.281,13213
61.366,8308
61.451,7544
61.536,6820
61.621,6701
61.706,6567
61.791,6445
61.876,6462
61.961,6505
62.046,6629
62.131,6623
62.216,6731
62.301,6575
62.386,6816
62.471,6942
62.556,7396
62.641,7877
62.726,10088
62.811,22292
62.896,33133
62.981,18645
63.066,21397
63.151,10236
63.236,7774
63.321,6932
63.406,6620
63.491,6524
63.576,6412
63.661,6428
63.746,6334
63.831,6362
63.916,6312
64.001,6435
64.086,6432
64.171,6151
64.256,6310
64.341,6361
64.426,6159
64.511,6173
64.596,6019
64.681,6069
64.766,6128
64.851,5938
64.936,5854
65.021,5963
65.106,5914
65.191,5814
65.276,5983
65.361,5859
65.446,5942
65.531,5946
65.616,5895
65.701,5915
65.786,6054
65.871,5859
65.956,5952
66.041,5774
66.126,5981
66.211,5960
66.296,5824
66.381,6003
66.466,6053
66.551,5951
66.636,6154
66.721,6409
66.806,6255
66.891,6334
66.976,6064
67.061,6211
67.146,6018
67.231,6154
67.316,6063
67.401,6058
67.486,6073
67.571,6189
67.656,6472
67.741,6517
67.826,7223
67.911,11027
67.996,13206
68.081,9830
68.166,11927
68.251,8531
68.336,7565
68.421,7140
68.506,7310
68.591,9089
68.676,13913
68.761,10164
68.846,10503
68.931,9286
69.016,7556
69.101,6956
69.186,6629
69.271,6762
69.356,6601
69.441,6612
69.526,6875
69.611,6890
69.696,6678
69.781,6775
69.866,6680
69.951,6448
70.036,6756
70.121,6821
70.206,6664
70.291,6796
70.376,7104
70.461,7323
70.546,7889
70.631,8712
70.716,11811
70.801,18485
70.886,31383
70.971,19197
71.056,20104
71.141,16510
71.226,13846
71.311,23882
71.396,39081
71.481,49342
71.566,35915
71.651,36554
71.736,39326
71.821,17940
71.906,18973
71.991,13897
72.076,11458
72.161,14269
72.246,10229
72.331,10267
72.416,10177
72.501,11202
72.586,10461
72.671,8427
72.756,9225
72.841,7571
72.926,6862
73.011,7083
73.096,6996
73.181,7699
73.266,10591
73.351,13059
73.436,8977
73.521,10479
73.606,8100
73.691,7227
73.776,6810
73.861,6663
73.946,6580
74.031,6594
74.116,6559
74.201,6515
74.286,6500
74.371,6489
74.456,6548
74.541,6618
74.626,6547
74.711,6518
74.796,6687
74.881,7334
74.966,9430
75.051,11495
75.136,8277
75.221,9327
75.306,8234
75.391,7123
75.476,6757
75.561,6892
75.646,7106
75.731,7788
75.816,6900
75.901,7142
75.986,6778
76.071,6523
76.156,6549
76.241,6396
76.326,6855
76.411,7902
76.496,7333
76.581,6981
76.666,7070
76.751,6505
76.836,6285
76.921,6201
77.006,6174
77.091,6210
77.176,6321
77.261,6403
77.346,6714
77.431,8486
77.516,13523
77.601,9446
77.686,9728
77.771,10422
77.856,8374
77.941,9718
78.026,13449
78.111,9977
78.196,9840
78.281,13280
78.366,19330
78.451,13318
78.536,10577
78.621,13105
78.706,8888
78.791,7346
78.876,7183
78.961,6487
79.046,6536
79.131,6429
79.216,6192
79.301,6139
79.386,6264
79.471,5998
79.556,6017
79.641,6126
79.726,6204
79.811,6125
79.896,6142
79.981,6401
80.066,6796
80.151,8760
80.236,8201
80.321,7249
80.406,7843
80.491,7263
80.576,6957
80.661,7289
80.746,8386
80.831,13659
80.916,10534
81.001,8873
81.086,10857
81.171,9082
81.256,9313
81.341,13608
81.426,11514
81.511,12180
81.596,14554
81.681,12861
81.766,12595
81.851,12511
81.936,11957
82.021,9228
82.106,9633
82.191,11003
82.276,10853
82.361,8084
82.446,8343
82.531,8239
82.616,6745
82.701,6570
82.786,6438
82.871,6295
82.956,6259
83.041,6682
83.126,7393
83.211,9447
83.296,8212
83.381,7266
83.466,7792
83.551,7082
83.636,6396
83.721,6002
83.806,6034
83.891,6132
83.976,5959
84.061,5992
84.146,6066
84.231,6060
84.316,6153
84.401,6153
84.486,6435
84.571,6426
84.656,6436
84.741,6460
84.826,6575
84.911,7093
84.996,7559
85.081,7446
85.166,6960
85.251,6967
85.336,6992
85.421,6905
85.506,7033
85.591,6490
85.676,6326
85.761,6433
85.846,6213
85.931,6201
86.016,6083
86.101,6045
86.186,6120
86.271,6128
86.356,6104
86.441,6092
86.526,6081
86.611,5932
86.696,6049
86.781,5975
86.866,5859
86.951,5898
87.036,5944
87.121,5934
87.206,5881
87.291,6024
87.376,5971
87.461,6074
87.546,5965
87.631,6131
87.716,6131
87.801,6098
87.886,6196
87.971,6106
88.056,6037
88.141,6064
88.226,6023
88.311,5983
88.396,5995
88.481,6040
88.566,5988
88.651,6111
88.736,6413
88.821,7045
88.906,8782
88.991,8819
89.076,7278
89.161,7663
89.246,8259
89.331,7351
89.416,7696
89.501,8987
89.586,12781
89.671,19293
89.756,15921
89.841,15818
89.926,24188
90.011,25693
90.096,17340
90.181,14683
90.266,14188
90.351,12647
90.436,8997
90.521,8486
90.606,9222
90.691,13339
90.776,12448
90.861,15254
90.946,12908
91.031,13039
91.116,15989
91.201,16605
91.286,11574
91.371,10375
91.456,10259
91.541,9397
91.626,7446
91.711,6831
91.796,6541
91.881,6609
91.966,6863
92.051,7779
92.136,8657
92.221,7228
92.306,6894
92.391,7450
92.476,7092
92.561,6584
92.646,7135
92.731,8186
92.816,7456
92.901,6815
92.986,7015
93.071,7202
93.156,6664
93.241,6520
93.326,6500
93.411,6477
93.496,6589
93.581,6751
93.666,7694
93.751,8979
93.836,7812
93.921,7480
94.006,8283
94.091,8903
94.176,9217
94.261,7969
94.346,7444
94.431,7529
94.516,7485
94.601,6878
94.686,6657
94.771,6368
94.856,6306
94.941,6381
95.026,6314
95.111,6207
95.196,6532
95.281,6430
95.366,6190
95.451,6485
95.536,6381
95.621,6324
95.706,6402
95.791,6541
95.876,7241
95.961,9280
96.046,10573
96.131,8720
96.216,8864
96.301,11895
96.386,12357
96.471,8912
96.556,8180
96.641,8762
96.726,8260
96.811,7753
96.896,8478
96.981,10769
97.066,12269
97.151,8893
97.236,8093
97.321,9021
97.406,8838
97.491,7235
97.576,6761
97.661,6456
97.746,6535
97.831,6785
97.916,7526
98.001,9179
98.086,11165
98.171,9007
98.256,8279
98.341,8809
98.426,9843
98.511,10068
98.596,12159
98.681,9741
98.766,8064
98.851,8761
98.936,10778
99.021,11591
99.106,8919
99.191,7512
99.276,7582
99.361,8285
99.446,7202
99.531,6816
99.616,6512
99.701,6207
99.786,6244
99.871,6120
99.956,6093
100.041,6216
100.126,6186
100.211,6264
100.296,6156
100.381,6243
100.466,6272
100.551,6271
100.636,6148
100.721,6245
100.806,6425
100.891,6377
100.976,6564
101.061,6704
101.146,7388
101.231,7749
101.316,7203
101.401,7427
101.486,8177
101.571,9019
101.656,7262
101.741,6925
101.826,7009
101.911,7225
101.996,6661
102.081,6526
102.166,6321
102.251,6171
102.336,6329
102.421,6205
102.506,6215
102.591,6062
102.676,6066
102.761,6185
102.846,6146
102.931,6175
103.016,6189
103.101,6271
103.186,6809
103.271,6902
103.356,6469
103.441,6277
103.526,6335
103.611,6521
103.696,6343
103.781,6073
103.866,6165
103.951,6008
104.036,6085
104.121,6171
104.206,6190
104.291,6141
104.376,6177
104.461,6037
104.546,6157
104.631,6302
104.716,6361
104.801,6302
104.886,6502
104.971,6958
105.056,8560
105.141,9808
105.226,7736
105.311,7311
105.396,7386
105.481,8196
105.566,7510
105.651,6955
105.736,6760
105.821,6703
105.906,6646
105.991,6531
106.076,6448
106.161,6435
106.246,6467
106.331,6516
106.416,6331
106.501,6434
106.586,6308
106.671,6288
106.756,6323
106.841,6344
106.926,6325
107.011,6501
107.096,6799
107.181,7098
107.266,7823
107.351,8426
107.436,7848
107.521,7913
107.606,8996
107.691,12225
107.776,13410
107.861,11841
107.946,10568
108.031,11577
108.116,15458
108.201,20830
108.286,18802
108.371,16897
108.456,16826
108.541,17545
108.626,17326
108.711,15111
108.796,16179
108.881,15206
108.966,12338
109.051,10009
109.136,9270
109.221,9759
109.306,8933
109.391,8236
109.476,8042
109.561,8915
109.646,10824
109.731,10272
109.816,8411
109.901,7795
109.986,8040
110.003,8040