File: data/xrd_icdd_PDF/00-060-0117 (PD3).csv
10,4535
10.08,4365
10.16,4447
10.24,4372
10.32,4025
10.4,4263
10.48,4202
10.56,3386
10.64,3950
10.72,3468
10.8,3209
10.88,3481
10.96,3264
11.04,2896
11.12,2958
11.2,3134
11.28,2679
11.36,2971
11.44,3087
11.52,3032
11.6,2699
11.68,2488
11.76,2706
11.84,2312
11.92,2420
12,2352
12.08,2332
12.16,2359
12.24,2563
12.32,2352
12.4,2386
12.48,2210
12.56,2162
12.64,2318
12.72,2094
12.8,2142
12.88,2169
12.96,2339
13.04,2203
13.12,2162
13.2,2080
13.28,2033
13.36,1965
13.44,2053
13.52,2250
13.6,2012
13.68,2128
13.76,1815
13.84,2019
13.92,1972
14,1931
14.08,2019
14.16,1747
14.24,1910
14.32,1747
14.4,2108
14.48,2196
14.56,2040
14.64,1897
14.72,2040
14.8,2026
14.88,1917
14.96,1836
15.04,2012
15.12,1931
15.2,1958
15.28,1938
15.36,2135
15.44,2087
15.52,1999
15.6,1924
15.68,1645
15.76,1958
15.84,1829
15.92,1931
16,1808
16.08,1863
16.16,2114
16.24,2346
16.32,2189
16.4,2114
16.48,2142
16.56,2346
16.64,2067
16.72,2053
16.8,1876
16.88,2101
16.96,1944
17.04,2067
17.12,1958
17.2,2264
17.28,2312
17.36,1740
17.44,1938
17.52,2006
17.6,2210
17.68,2155
17.76,2074
17.84,2189
17.92,2169
18,2250
18.08,2142
18.16,2033
18.24,2250
18.32,2169
18.4,2121
18.48,1985
18.56,2074
18.64,2189
18.72,2352
18.8,2053
18.88,2162
18.96,2278
19.04,1999
19.12,1985
19.2,2060
19.28,2223
19.36,1978
19.44,1985
19.52,2441
19.6,2264
19.68,2278
19.76,2040
19.84,2339
19.92,2359
20,2094
20.08,2114
20.16,2407
20.24,2067
20.32,2046
20.4,2244
20.48,2155
20.56,2114
20.64,2155
20.72,2380
20.8,2278
20.88,2148
20.96,2291
21.04,2203
21.12,2108
21.2,2101
21.28,1972
21.36,2176
21.44,1883
21.52,1958
21.6,2305
21.68,2373
21.76,2128
21.84,2080
21.92,2155
22,2033
22.08,2223
22.16,2332
22.24,2502
22.32,2339
22.4,2244
22.48,2386
22.56,2400
22.64,2087
22.72,2414
22.8,2495
22.88,2346
22.96,2550
23.04,2910
23.12,2856
23.2,2461
23.28,2468
23.36,2366
23.44,2162
23.52,2618
23.6,2516
23.68,2427
23.76,2590
23.84,2958
23.92,2985
24,4039
24.08,6099
24.16,7119
24.24,4392
24.32,3189
24.4,2577
24.48,2645
24.56,2658
24.64,2516
24.72,2543
24.8,2733
24.88,2624
24.96,2318
25.04,2393
25.12,2482
25.2,2679
25.28,2529
25.36,2454
25.44,2584
25.52,2740
25.6,2822
25.68,2346
25.76,2488
25.84,2706
25.92,2720
26,2543
26.08,2658
26.16,2903
26.24,2822
26.32,2550
26.4,2924
26.48,2842
26.56,2815
26.64,2726
26.72,2672
26.8,2835
26.88,3032
26.96,3971
27.04,6324
27.12,9934
27.2,9962
27.28,9384
27.36,4930
27.44,3937
27.52,3230
27.6,2536
27.68,2774
27.76,2869
27.84,3005
27.92,2794
28,2624
28.08,2781
28.16,2563
28.24,2726
28.32,2842
28.4,2890
28.48,2964
28.56,3026
28.64,2638
28.72,2720
28.8,2924
28.88,2733
28.96,3264
29.04,2876
29.12,3039
29.2,3155
29.28,3107
29.36,3114
29.44,2917
29.52,3978
29.6,5732
29.68,4474
29.76,3930
29.84,3604
29.92,3332
30,3032
30.08,2713
30.16,2937
30.24,2883
30.32,3393
30.4,4243
30.48,4814
30.56,7391
30.64,11342
30.72,9220
30.8,5242
30.88,3610
30.96,3298
31.04,3298
31.12,3338
31.2,3202
31.28,3155
31.36,3352
31.44,3100
31.52,2788
31.6,2849
31.68,2828
31.76,3094
31.84,2706
31.92,2713
32,2971
32.08,3128
32.16,2740
32.24,2822
32.32,2869
32.4,3032
32.48,3155
32.56,2930
32.64,3576
32.72,3209
32.8,3576
32.88,3338
32.96,3583
33.04,3828
33.12,4134
33.2,4794
33.28,5603
33.36,7888
33.44,13579
33.52,29981
33.6,47627
33.68,46627
33.76,29158
33.84,35067
33.92,47729
34,36121
34.08,19189
34.16,10363
34.24,6997
34.32,5528
34.4,4365
34.48,4556
34.56,4984
34.64,5746
34.72,8894
34.8,14810
34.88,25629
34.96,24119
35.04,13552
35.12,7269
35.2,4671
35.28,4005
35.36,4433
35.44,3563
35.52,3413
35.6,3855
35.68,4168
35.76,6065
35.84,7344
35.92,8935
36,8275
36.08,5480
36.16,3896
36.24,3678
36.32,3236
36.4,2862
36.48,3338
36.56,3066
36.64,3005
36.72,2495
36.8,2611
36.88,2998
36.96,2774
37.04,2978
37.12,3141
37.2,2842
37.28,2801
37.36,3026
37.44,2856
37.52,3134
37.6,2944
37.68,2869
37.76,2998
37.84,2985
37.92,2788
38,3012
38.08,3168
38.16,2903
38.24,2475
38.32,2774
38.4,2958
38.48,3019
38.56,2815
38.64,2978
38.72,2611
38.8,2930
38.88,2754
38.96,3032
39.04,2679
39.12,2849
39.2,3046
39.28,2400
39.36,3264
39.44,2543
39.52,3080
39.6,2951
39.68,2767
39.76,2726
39.84,3026
39.92,2815
40,2903
40.08,2393
40.16,2951
40.24,2720
40.32,2781
40.4,3202
40.48,3175
40.56,3039
40.64,2828
40.72,2978
40.8,2822
40.88,2856
40.96,2958
41.04,2611
41.12,2720
41.2,3046
41.28,2917
41.36,3053
41.44,3236
41.52,3128
41.6,3107
41.68,3162
41.76,2570
41.84,2801
41.92,2917
42,3032
42.08,3862
42.16,5535
42.24,5922
42.32,5100
42.4,3896
42.48,3536
42.56,3549
42.64,3590
42.72,4311
42.8,6895
42.88,8588
42.96,7690
43.04,4984
43.12,4127
43.2,3400
43.28,3400
43.36,2917
43.44,3570
43.52,2550
43.6,3202
43.68,3304
43.76,3461
43.84,3481
43.92,3094
44,3481
44.08,3189
44.16,3536
44.24,3889
44.32,4916
44.4,8173
44.48,12627
44.56,13613
44.64,9832
44.72,6419
44.8,4977
44.88,4080
44.96,3420
45.04,3270
45.12,3447
45.2,3230
45.28,2849
45.36,2937
45.44,3162
45.52,2849
45.6,2788
45.68,2754
45.76,3114
45.84,2713
45.92,3202
46,3046
46.08,3604
46.16,3780
46.24,4324
46.32,3549
46.4,3413
46.48,3372
46.56,3080
46.64,3270
46.72,3019
46.8,3175
46.88,3141
46.96,3230
47.04,3481
47.12,3542
47.2,3658
47.28,3141
47.36,3053
47.44,2903
47.52,3114
47.6,3026
47.68,3440
47.76,3366
47.84,2692
47.92,3406
48,3284
48.08,3454
48.16,3406
48.24,3236
48.32,3468
48.4,3583
48.48,3162
48.56,3032
48.64,3094
48.72,2801
48.8,3026
48.88,3005
48.96,3060
49.04,3277
49.12,3828
49.2,4290
49.28,6004
49.36,8636
49.44,10213
49.52,10342
49.6,6249
49.68,5011
49.76,4025
49.84,3570
49.92,3536
50,3542
50.08,3284
50.16,3359
50.24,3481
50.32,2862
50.4,3556
50.48,3019
50.56,3386
50.64,3413
50.72,3202
50.8,3481
50.88,3434
50.96,3413
51.04,3032
51.12,3243
51.2,3447
51.28,3597
51.36,3495
51.44,3474
51.52,3556
51.6,3366
51.68,3678
51.76,4052
51.84,3570
51.92,4188
52,4780
52.08,7310
52.16,10451
52.24,12892
52.32,13185
52.4,10458
52.48,7473
52.56,5555
52.64,4535
52.72,4624
52.8,3746
52.88,4134
52.96,3454
53.04,3814
53.12,3223
53.2,3542
53.28,3583
53.36,3746
53.44,3964
53.52,5059
53.6,5412
53.68,5025
53.76,4773
53.84,4311
53.92,3760
54,4025
54.08,3502
54.16,3685
54.24,3366
54.32,4447
54.4,5508
54.48,5474
54.56,6222
54.64,5480
54.72,4270
54.8,3835
54.88,3366
54.96,3699
55.04,3978
55.12,5623
55.2,5657
55.28,4936
55.36,4590
55.44,4093
55.52,3318
55.6,3726
55.68,3848
55.76,4012
55.84,4834
55.92,5229
56,5548
56.08,6045
56.16,5433
56.24,4358
56.32,4148
56.4,3930
56.48,3298
56.56,3311
56.64,3794
56.72,3454
56.8,3597
56.88,3903
56.96,3461
57.04,3488
57.12,3644
57.2,3461
57.28,3801
57.36,3814
57.44,3882
57.52,3950
57.6,3576
57.68,3461
57.76,3794
57.84,3304
57.92,3284
58,3447
58.08,3869
58.16,3434
58.24,3780
58.32,3209
58.4,3712
58.48,3209
58.56,3257
58.64,3801
58.72,3508
58.8,3692
58.88,4494
58.96,4773
59.04,5181
59.12,6582
59.2,7072
59.28,8010
59.36,6460
59.44,6099
59.52,5025
59.6,4760
59.68,4719
59.76,5440
59.84,6636
59.92,6623
60,7337
60.08,6480
60.16,5453
60.24,4828
60.32,5446
60.4,5950
60.48,6616
60.56,6970
60.64,5555
60.72,4896
60.8,4732
60.88,3848
60.96,4066
61.04,3522
61.12,4209
61.2,3502
61.28,3556
61.36,3257
61.44,3495
61.52,3828
61.6,3454
61.68,4127
61.76,4107
61.84,4902
61.92,5113
62,5236
62.08,4644
62.16,4202
62.24,4168
62.32,3345
62.4,3712
62.48,3631
62.56,3937
62.64,4080
62.72,3794
62.8,3556
62.88,3434
62.96,3502
63.04,3774
63.12,3651
63.2,3570
63.28,3189
63.36,3604
63.44,3767
63.52,3712
63.6,4358
63.68,5814
63.76,5834
63.84,6222
63.92,5800
64,5807
64.08,5140
64.16,5548
64.24,6160
64.32,6405
64.4,6643
64.48,5460
64.56,4991
64.64,4447
64.72,4175
64.8,3733
64.88,3767
64.96,4005
65.04,4182
65.12,4698
65.2,5317
65.28,5582
65.36,5372
65.44,6432
65.52,6453
65.6,6126
65.68,5888
65.76,5161
65.84,4318
65.92,4059
66,4250
66.08,3862
66.16,3583
66.24,3468
66.32,3910
66.4,3855
66.48,3910
66.56,3991
66.64,4562
66.72,6011
66.8,7412
66.88,8772
66.96,11104
67.04,11689
67.12,9710
67.2,7595
67.28,7201
67.36,5970
67.44,5644
67.52,6439
67.6,7248
67.68,7690
67.76,7303
67.84,7350
67.92,6392
68,5759
68.08,5174
68.16,4814
68.24,4739
68.32,4256
68.4,3984
68.48,3903
68.56,3814
68.64,3808
68.72,3522
68.8,4059
68.88,3814
68.96,3794
69.04,3910
69.12,4032
69.2,5045
69.28,5229
69.36,5752
69.44,5059
69.52,5297
69.6,5025
69.68,4515
69.76,3672
69.84,3828
69.92,4107
70,3665
70.08,3576
70.16,3515
70.24,3311
70.32,3563
70.4,4148
70.48,3726
70.56,4780
70.64,4168
70.72,4352
70.8,4324
70.88,3978
70.96,3583
71.04,3855
71.12,3372
71.2,3712
71.28,3529
71.36,3556
71.44,3434
71.52,3345
71.6,3515
71.68,3325
71.76,3774
71.84,3474
71.92,3665
72,3427
72.08,3726
72.16,3236
72.24,3733
72.32,3529
72.4,4141
72.48,3998
72.56,4413
72.64,4569
72.72,4624
72.8,4243
72.88,3719
72.96,3570
73.04,3447
73.12,3699
73.2,3774
73.28,3740
73.36,3549
73.44,3332
73.52,3855
73.6,3617
73.68,4032
73.76,3801
73.84,3706
73.92,3712
74,3556
74.08,3889
74.16,3692
74.24,3712
74.32,4012
74.4,3495
74.48,3563
74.56,3481
74.64,3427
74.72,3610
74.8,3338
74.88,3243
74.96,3760
75.04,3549
75.12,3835
75.2,3787
75.28,3536
75.36,3706
75.44,3726
75.52,3726
75.6,3624
75.68,3753
75.76,3740
75.84,3706
75.92,3692
76,3930
76.08,3991
76.16,3733
76.24,4277
76.32,4474
76.4,4522
76.48,5215
76.56,5195
76.64,4882
76.72,4290
76.8,4202
76.88,3719
76.96,4148
77.04,4583
77.12,4855
77.2,4739
77.28,4936
77.36,4256
77.44,4494
77.52,4705
77.6,5120
77.68,5032
77.76,4746
77.84,4562
77.92,4188
78,4433
78.08,4270
78.16,4175
78.24,3984
78.32,3916
78.4,3882
78.48,4318
78.56,4100
78.64,4372
78.72,4882
78.8,5045
78.88,5086
78.96,4610
79.04,4800
79.12,4780
79.2,4277
79.28,4930
79.36,4052
79.44,4624
79.52,4617
79.6,4406
79.68,4406
79.76,4243
79.84,4855
79.92,5372
80,5739
80.08,5555
80.16,5990
80.24,6004
80.32,5521
80.4,4909
80.48,5215
80.56,4726
80.64,4005
80.72,3774
80.8,3672
80.88,3760
80.96,4005
81.04,3964
81.12,3862
81.2,3801
81.28,3916
81.36,3916
81.44,4229
81.52,3923
81.6,4413
81.68,4719
81.76,5236
81.84,5589
81.92,5786
82,5555
82.08,5249
82.16,5460
82.24,4930
82.32,4304
82.4,4284
82.48,4358
82.56,3944
82.64,3882
82.72,3916
82.8,4012
82.88,3916
82.96,4229
83.04,4012
83.12,3495
83.2,4012
83.28,4127
83.36,3991
83.44,4066
83.52,3944
83.6,3998
83.68,4052
83.76,3937
83.84,3658
83.92,3794
84,3876
84.08,4141
84.16,3828
84.24,3549
84.32,3794
84.4,3950
84.48,3760
84.56,3624
84.64,3604
84.72,3842
84.8,3461
84.88,3869
84.96,3542
85.04,3726
85.12,4256
85.2,3576
85.28,3502
85.36,3488
85.44,3597
85.52,3828
85.6,3889
85.68,4066
85.76,4352
85.84,3910
85.92,4154
86,4528
86.08,4433
86.16,4386
86.24,4488
86.32,4127
86.4,4698
86.48,4542
86.56,5106
86.64,5188
86.72,4841
86.8,5168
86.88,5351
86.96,5249
87.04,4556
87.12,4685
87.2,4726
87.28,4426
87.36,4175
87.44,4263
87.52,4202
87.6,4318
87.68,4120
87.76,4324
87.84,4515
87.92,4209
88,4440
88.08,4352
88.16,4522
88.24,5202
88.32,5242
88.4,4324
88.48,4739
88.56,4379
88.64,4624
88.72,4501
88.8,4535
88.88,4617
88.96,4862
89.04,5161
89.12,5113
89.2,5372
89.28,5365
89.36,4590
89.44,4950
89.52,4590
89.6,4896
89.68,5066
89.76,5378
89.84,5195
89.92,5188
90,6718
90.08,5759
90.16,5018
90.24,4413
90.32,4896
90.4,4739
90.48,4522
90.56,4447
90.64,3964
90.72,4481
90.8,3862
90.88,4467
90.96,4630
91.04,4222
91.12,4726
91.2,4583
91.28,4304
91.36,4372
91.44,3964
91.52,4338
91.6,4440
91.68,4474
91.76,4576
91.84,4114
91.92,4012
92,3971
92.08,4447
92.16,4086
92.24,4379
92.32,4250
92.4,4195
92.48,4161
92.56,4515
92.64,4596
92.72,4426
92.8,4739
92.88,4970
92.96,5365
93.04,5596
93.12,5406
93.2,5120
93.28,5093
93.36,5514
93.44,5188
93.52,5120
93.6,5310
93.68,5426
93.76,5338
93.84,5392
93.92,5134
94,5453
94.08,4834
94.16,5025
94.24,4896
94.32,4610
94.4,4930
94.48,4617
94.56,4630
94.64,4950
94.72,4739
94.8,5610
94.88,5984
94.96,6018
95.04,6154
95.12,6174
95.2,6167
95.28,5453
95.36,4780
95.44,4807
95.52,4787
95.6,3991
95.68,4134
95.76,4372
95.84,4331
95.92,4678
96,4494
96.08,4195
96.16,4148
96.24,4372
96.32,4182
96.4,4345
96.48,4297
96.56,4399
96.64,4277
96.72,4216
96.8,4284
96.88,4107
96.96,4005
97.04,4583
97.12,3814
97.2,4120
97.28,4256
97.36,3848
97.44,3882
97.52,4243
97.6,4311
97.68,3930
97.76,3794
97.84,3910
97.92,4141
98,4148
98.08,3889
98.16,4059
98.24,4488
98.32,4324
98.4,4032
98.48,3944
98.56,4093
98.64,4175
98.72,4250
98.8,3930
98.88,3896
98.96,4576
99.04,4413
99.12,4222
99.2,4440
99.28,4474
99.36,4984
99.44,5127
99.52,5038
99.6,4610
99.68,4991
99.76,4596
99.84,4644
99.92,4780
100,4569