File: data/xrd_icdd_PDF/00-058-0321 (PD3).csv
10,7055
10.08,6982
10.16,6893
10.24,7062
10.32,6758
10.4,6712
10.48,6870
10.56,6883
10.64,6692
10.72,6484
10.8,6425
10.88,6421
10.96,6524
11.04,6246
11.12,6293
11.2,6266
11.28,6296
11.36,6068
11.44,5999
11.52,6204
11.6,6091
11.68,5573
11.76,6025
11.84,5735
11.92,5725
12,5844
12.08,5722
12.16,5517
12.24,5649
12.32,5415
12.4,5603
12.48,5669
12.56,5563
12.64,5497
12.72,5415
12.8,5223
12.88,5626
12.96,5563
13.04,5332
13.12,5537
13.2,5415
13.28,5382
13.36,5263
13.44,5247
13.52,5052
13.6,5134
13.68,5342
13.76,5230
13.84,5194
13.92,5346
14,5273
14.08,5068
14.16,5065
14.24,5042
14.32,5045
14.4,4950
14.48,5240
14.56,4857
14.64,5204
14.72,5012
14.8,5058
14.88,5078
14.96,4864
15.04,4837
15.12,4893
15.2,5002
15.28,4887
15.36,4989
15.44,4775
15.52,4854
15.6,4827
15.68,4877
15.76,4428
15.84,4544
15.92,4801
16,4527
16.08,4398
16.16,4768
16.24,4537
16.32,4521
16.4,4313
16.48,4481
16.56,4464
16.64,4666
16.72,4422
16.8,4389
16.88,4323
16.96,4290
17.04,4326
17.12,4428
17.2,4349
17.28,4408
17.36,4306
17.44,4194
17.52,4128
17.6,4359
17.68,4362
17.76,4214
17.84,4346
17.92,3907
18,4210
18.08,4342
18.16,4012
18.24,4125
18.32,4088
18.4,4134
18.48,3993
18.56,3989
18.64,4247
18.72,4210
18.8,3960
18.88,4012
18.96,4316
19.04,4197
19.12,4339
19.2,4877
19.28,5996
19.36,6382
19.44,5085
19.52,4118
19.6,3950
19.68,3940
19.76,3927
19.84,3808
19.92,3874
20,3682
20.08,4006
20.16,3927
20.24,3844
20.32,3791
20.4,3709
20.48,3682
20.56,3884
20.64,3679
20.72,3861
20.8,3649
20.88,3715
20.96,3600
21.04,3712
21.12,3692
21.2,3656
21.28,3623
21.36,3531
21.44,3735
21.52,3798
21.6,3656
21.68,3639
21.76,3709
21.84,3623
21.92,3689
22,3399
22.08,3435
22.16,3636
22.24,3712
22.32,3438
22.4,3663
22.48,3425
22.56,3293
22.64,3639
22.72,3643
22.8,3560
22.88,3537
22.96,3715
23.04,3811
23.12,3511
23.2,3570
23.28,3432
23.36,3771
23.44,3501
23.52,3735
23.6,3686
23.68,3554
23.76,3524
23.84,3686
23.92,3395
24,3540
24.08,3573
24.16,3735
24.24,3768
24.32,3636
24.4,3818
24.48,3550
24.56,3851
24.64,3801
24.72,3554
24.8,3864
24.88,3679
24.96,3897
25.04,3725
25.12,3702
25.2,3927
25.28,3930
25.36,3758
25.44,3768
25.52,4039
25.6,4161
25.68,4200
25.76,4445
25.84,4636
25.92,6002
26,8916
26.08,15988
26.16,33386
26.24,52638
26.32,31851
26.4,11190
26.48,6263
26.56,5006
26.64,4649
26.72,4537
26.8,4346
26.88,4398
26.96,4309
27.04,4501
27.12,4606
27.2,4610
27.28,4544
27.36,4689
27.44,4900
27.52,4689
27.6,4996
27.68,5438
27.76,6352
27.84,9688
27.92,16401
28,15939
28.08,8266
28.16,5157
28.24,4530
28.32,4316
28.4,4435
28.48,4250
28.56,4389
28.64,4484
28.72,4260
28.8,4326
28.88,4398
28.96,4257
29.04,3927
29.12,4273
29.2,4181
29.28,4392
29.36,4220
29.44,4121
29.52,3976
29.6,4365
29.68,4309
29.76,4286
29.84,4085
29.92,4405
30,3923
30.08,4092
30.16,4002
30.24,4098
30.32,4032
30.4,3890
30.48,4111
30.56,3890
30.64,3976
30.72,4332
30.8,4425
30.88,4068
30.96,4372
31.04,4270
31.12,4286
31.2,4346
31.28,4148
31.36,4306
31.44,4075
31.52,5491
31.6,7712
31.68,13490
31.76,17836
31.84,12441
31.92,6517
32,4893
32.08,4286
32.16,3752
32.24,3768
32.32,3550
32.4,3620
32.48,3689
32.56,3702
32.64,3765
32.72,3917
32.8,3626
32.88,3527
32.96,3738
33.04,3798
33.12,3567
33.2,3567
33.28,3636
33.36,3699
33.44,3425
33.52,3306
33.6,3719
33.68,3309
33.76,3781
33.84,3709
33.92,4263
34,5979
34.08,9375
34.16,17476
34.24,18843
34.32,11348
34.4,6015
34.48,4105
34.56,3884
34.64,3643
34.72,3659
34.8,3445
34.88,3445
34.96,3663
35.04,3712
35.12,3643
35.2,3897
35.28,4613
35.36,6052
35.44,10167
35.52,21034
35.6,23090
35.68,14058
35.76,5870
35.84,3973
35.92,3765
36,3587
36.08,3253
36.16,3260
36.24,3313
36.32,3276
36.4,3428
36.48,3375
36.56,3059
36.64,3204
36.72,3399
36.8,3333
36.88,3108
36.96,3250
37.04,3296
37.12,3243
37.2,3267
37.28,3329
37.36,3293
37.44,3135
37.52,3217
37.6,3154
37.68,3210
37.76,3243
37.84,3095
37.92,3144
38,3296
38.08,3184
38.16,3220
38.24,3138
38.32,3247
38.4,3098
38.48,3207
38.56,3276
38.64,3092
38.72,3422
38.8,3481
38.88,3359
38.96,3798
39.04,3867
39.12,4527
39.2,5679
39.28,5207
39.36,4481
39.44,3719
39.52,3567
39.6,3461
39.68,3168
39.76,3712
39.84,4220
39.92,4755
40,4682
40.08,3887
40.16,3907
40.24,3600
40.32,3458
40.4,3623
40.48,3441
40.56,3900
40.64,4527
40.72,5775
40.8,6547
40.88,5606
40.96,4323
41.04,3841
41.12,3913
41.2,4392
41.28,4715
41.36,4643
41.44,4144
41.52,3831
41.6,3544
41.68,3765
41.76,3927
41.84,3679
41.92,3451
42,3705
42.08,3587
42.16,3900
42.24,3923
42.32,3758
42.4,3861
42.48,4161
42.56,5016
42.64,7378
42.72,13193
42.8,16516
42.88,12856
42.96,8197
43.04,6118
43.12,6603
43.2,9348
43.28,11536
43.36,9368
43.44,6600
43.52,4742
43.6,4237
43.68,3897
43.76,3930
43.84,3686
43.92,3778
44,3729
44.08,3649
44.16,3732
44.24,3762
44.32,3818
44.4,3940
44.48,4501
44.56,5547
44.64,9075
44.72,12173
44.8,10253
44.88,6840
44.96,4620
45.04,3999
45.12,3610
45.2,3600
45.28,3686
45.36,3448
45.44,3389
45.52,3521
45.6,3583
45.68,3894
45.76,4659
45.84,4481
45.92,3969
46,3854
46.08,3491
46.16,3428
46.24,3471
46.32,3438
46.4,3395
46.48,3465
46.56,3290
46.64,3567
46.72,3481
46.8,3956
46.88,4808
46.96,7098
47.04,8622
47.12,7623
47.2,5692
47.28,4293
47.36,3725
47.44,3402
47.52,3082
47.6,3168
47.68,3177
47.76,3201
47.84,3045
47.92,3237
48,3042
48.08,3217
48.16,3016
48.24,3148
48.32,3144
48.4,3237
48.48,3240
48.56,3306
48.64,3573
48.72,4455
48.8,6411
48.88,6270
48.96,4940
49.04,3847
49.12,3385
49.2,3095
49.28,3049
49.36,2871
49.44,2976
49.52,2913
49.6,2963
49.68,2900
49.76,2940
49.84,2993
49.92,2755
50,3055
50.08,3672
50.16,3936
50.24,3821
50.32,3306
50.4,3026
50.48,2894
50.56,2927
50.64,2709
50.72,2861
50.8,2838
50.88,2824
50.96,3214
51.04,4141
51.12,5860
51.2,6052
51.28,5118
51.36,4055
51.44,3227
51.52,3055
51.6,2923
51.68,2917
51.76,2808
51.84,2653
51.92,2580
52,2785
52.08,2831
52.16,2544
52.24,2600
52.32,2547
52.4,2577
52.48,2847
52.56,3026
52.64,3771
52.72,5217
52.8,7491
52.88,7177
52.96,6322
53.04,4280
53.12,3534
53.2,3022
53.28,2844
53.36,2907
53.44,2607
53.52,2521
53.6,2686
53.68,2920
53.76,3517
53.84,4078
53.92,4920
54,4672
54.08,4148
54.16,3286
54.24,3234
54.32,3412
54.4,3580
54.48,3897
54.56,3903
54.64,3504
54.72,3316
54.8,3022
54.88,2900
54.96,3065
55.04,3303
55.12,3930
55.2,3775
55.28,3342
55.36,3329
55.44,3003
55.52,2861
55.6,2765
55.68,2669
55.76,2643
55.84,2438
55.92,2389
56,2313
56.08,2352
56.16,2382
56.24,2455
56.32,2511
56.4,2696
56.48,2795
56.56,2854
56.64,3313
56.72,3639
56.8,3857
56.88,3709
56.96,3755
57.04,4214
57.12,5557
57.2,5276
57.28,4920
57.36,4101
57.44,3511
57.52,3125
57.6,3412
57.68,3821
57.76,3699
57.84,3339
57.92,3154
58,2986
58.08,2963
58.16,3125
58.24,3154
58.32,3709
58.4,3748
58.48,3465
58.56,3059
58.64,2603
58.72,2422
58.8,2488
58.88,2316
58.96,2329
59.04,2379
59.12,2405
59.2,2362
59.28,2399
59.36,2402
59.44,2435
59.52,2329
59.6,2362
59.68,2372
59.76,2333
59.84,2310
59.92,2409
60,2372
60.08,2458
60.16,2402
60.24,2620
60.32,2828
60.4,2831
60.48,2768
60.56,2775
60.64,2669
60.72,2597
60.8,2607
60.88,2607
60.96,2623
61.04,2656
61.12,2775
61.2,3161
61.28,3643
61.36,5174
61.44,6227
61.52,5662
61.6,5289
61.68,4682
61.76,5148
61.84,4745
61.92,4214
62,3626
62.08,3052
62.16,2801
62.24,2742
62.32,2557
62.4,2481
62.48,2481
62.56,2600
62.64,2405
62.72,2481
62.8,2537
62.88,2593
62.96,2580
63.04,2583
63.12,2765
63.2,3082
63.28,3682
63.36,4504
63.44,4695
63.52,4263
63.6,3768
63.68,3319
63.76,2857
63.84,2732
63.92,2511
64,2587
64.08,2494
64.16,2445
64.24,2405
64.32,2432
64.4,2438
64.48,2346
64.56,2392
64.64,2359
64.72,2359
64.8,2442
64.88,2468
64.96,2494
65.04,2494
65.12,2616
65.2,2913
65.28,3498
65.36,3148
65.44,3171
65.52,2824
65.6,2465
65.68,2521
65.76,2508
65.84,2501
65.92,2425
66,2554
66.08,2560
66.16,2762
66.24,2927
66.32,2943
66.4,2956
66.48,2894
66.56,2877
66.64,2788
66.72,2686
66.8,2603
66.88,2567
66.96,2531
67.04,2719
67.12,2633
67.2,2808
67.28,2801
67.36,3078
67.44,3201
67.52,3715
67.6,4933
67.68,6765
67.76,6534
67.84,6138
67.92,5530
68,4441
68.08,3580
68.16,3257
68.24,3042
68.32,3062
68.4,2956
68.48,3016
68.56,3234
68.64,3699
68.72,5006
68.8,5735
68.88,5332
68.96,5445
69.04,5791
69.12,6527
69.2,5639
69.28,5078
69.36,4455
69.44,3643
69.52,2953
69.6,2887
69.68,2824
69.76,2795
69.84,2798
69.92,2788
70,2758
70.08,2877
70.16,3016
70.24,2966
70.32,2950
70.4,2772
70.48,2758
70.56,2484
70.64,2547
70.72,2435
70.8,2415
70.88,2484
70.96,2438
71.04,2541
71.12,2488
71.2,2461
71.28,2491
71.36,2616
71.44,2484
71.52,2461
71.6,2593
71.68,2715
71.76,2673
71.84,2834
71.92,3217
72,3481
72.08,3544
72.16,3227
72.24,3085
72.32,2910
72.4,2775
72.48,2600
72.56,2587
72.64,2465
72.72,2560
72.8,2587
72.88,2445
72.96,2501
73.04,2524
73.12,2676
73.2,2696
73.28,2910
73.36,3230
73.44,3679
73.52,3755
73.6,3362
73.68,3372
73.76,3062
73.84,2986
73.92,2900
74,3036
74.08,3148
74.16,3356
74.24,4068
74.32,5583
74.4,7223
74.48,6613
74.56,5883
74.64,5834
74.72,5441
74.8,5751
74.88,5289
74.96,4699
75.04,4448
75.12,4177
75.2,3712
75.28,3471
75.36,3184
75.44,3032
75.52,2960
75.6,2630
75.68,2547
75.76,2577
75.84,2435
75.92,2438
76,2372
76.08,2428
76.16,2392
76.24,2494
76.32,2418
76.4,2484
76.48,2478
76.56,2442
76.64,2392
76.72,2425
76.8,2428
76.88,2392
76.96,2333
77.04,2409
77.12,2405
77.2,2428
77.28,2362
77.36,2372
77.44,2498
77.52,2488
77.6,2435
77.68,2593
77.76,2593
77.84,2887
77.92,3171
78,3451
78.08,3171
78.16,3184
78.24,3128
78.32,3108
78.4,3250
78.48,4115
78.56,4207
78.64,3798
78.72,4026
78.8,4455
78.88,4326
78.96,3857
79.04,3636
79.12,3550
79.2,3098
79.28,2814
79.36,2679
79.44,2607
79.52,2587
79.6,2570
79.68,2491
79.76,2570
79.84,2653
79.92,2656
80,3062
80.08,3339
80.16,4379
80.24,4659
80.32,3913
80.4,3877
80.48,3828
80.56,3399
80.64,3339
80.72,3059
80.8,3026
80.88,2762
80.96,2732
81.04,2531
81.12,2484
81.2,2432
81.28,2455
81.36,2481
81.44,2475
81.52,2409
81.6,2541
81.68,2511
81.76,2640
81.84,2715
81.92,2920
82,3174
82.08,3141
82.16,3022
82.24,2943
82.32,2857
82.4,2633
82.48,2623
82.56,2405
82.64,2498
82.72,2475
82.8,2362
82.88,2405
82.96,2468
83.04,2376
83.12,2432
83.2,2392
83.28,2484
83.36,2468
83.44,2458
83.52,2415
83.6,2418
83.68,2438
83.76,2409
83.84,2494
83.92,2620
84,2653
84.08,2808
84.16,2960
84.24,3240
84.32,3296
84.4,3227
84.48,2946
84.56,3059
84.64,2913
84.72,2633
84.8,2616
84.88,2547
84.96,2471
85.04,2445
85.12,2488
85.2,2725
85.28,2663
85.36,2613
85.44,2831
85.52,2778
85.6,2880
85.68,2739
85.76,2626
85.84,2501
85.92,2679
86,2725
86.08,2702
86.16,2600
86.24,2501
86.32,2508
86.4,2484
86.48,2428
86.56,2425
86.64,2514
86.72,2633
86.8,2653
86.88,2610
86.96,2765
87.04,2597
87.12,2455
87.2,2633
87.28,2442
87.36,2468
87.44,2366
87.52,2366
87.6,2425
87.68,2310
87.76,2343
87.84,2382
87.92,2359
88,2422
88.08,2359
88.16,2488
88.24,2682
88.32,2715
88.4,2706
88.48,2547
88.56,2577
88.64,2613
88.72,2527
88.8,2508
88.88,2547
88.96,2554
89.04,2630
89.12,2699
89.2,3042
89.28,3220
89.36,3144
89.44,2960
89.52,2894
89.6,2715
89.68,2679
89.76,2461
89.84,2422
89.92,2405
90,2267
90.08,2296
90.16,2187
90.24,2277
90.32,2425
90.4,2270
90.48,2244
90.56,2267
90.64,2369
90.72,2395
90.8,2405
90.88,2547
90.96,2557
91.04,2385
91.12,2475
91.2,2392
91.28,2379
91.36,2296
91.44,2349
91.52,2296
91.6,2343
91.68,2263
91.76,2310
91.84,2263
91.92,2260
92,2343
92.08,2227
92.16,2263
92.24,2313
92.32,2277
92.4,2313
92.48,2277
92.56,2323
92.64,2498
92.72,2547
92.8,2458
92.88,2435
92.96,2438
93.04,2422
93.12,2471
93.2,2277
93.28,2323
93.36,2323
93.44,2270
93.52,2372
93.6,2349
93.68,2339
93.76,2300
93.84,2316
93.92,2346
94,2270
94.08,2366
94.16,2405
94.24,2389
94.32,2389
94.4,2458
94.48,2517
94.56,2676
94.64,2811
94.72,3042
94.8,3593
94.88,4105
94.96,4365
95.04,4072
95.12,3936
95.2,3771
95.28,3672
95.36,3300
95.44,3105
95.52,2867
95.6,2745
95.68,2646
95.76,2682
95.84,2676
95.92,2801
96,2831
96.08,2623
96.16,2765
96.24,2795
96.32,2844
96.4,2742
96.48,2603
96.56,2706
96.64,2593
96.72,2587
96.8,2415
96.88,2402
96.96,2392
97.04,2432
97.12,2461
97.2,2442
97.28,2442
97.36,2560
97.44,2547
97.52,2719
97.6,2805
97.68,2666
97.76,2613
97.84,2626
97.92,2702
98,2560
98.08,2481
98.16,2484
98.24,2435
98.32,2508
98.4,2455
98.48,2442
98.56,2451
98.64,2465
98.72,2471
98.8,2524
98.88,2501
98.96,2488
99.04,2547
99.12,2494
99.2,2587
99.28,2649
99.36,2814
99.44,2805
99.52,2811
99.6,2821
99.68,2593
99.76,2623
99.84,2729
99.92,2636
100,2620