File: data/xrd_icdd_PDF/00-063-0370 (PD3).csv
5.011,3060
5.113,2946
5.215,2949
5.317,2814
5.419,2614
5.52101,2626
5.62301,2582
5.72501,2377
5.82701,2451
5.92901,2371
6.03101,2366
6.13301,2219
6.23501,2148
6.33701,2129
6.43902,2118
6.54102,2057
6.64302,2020
6.74502,1932
6.84702,2048
6.94902,1935
7.05102,1979
7.15302,1923
7.25503,1866
7.35703,1811
7.45903,1812
7.56103,1822
7.66303,1742
7.76503,1782
7.86703,1731
7.96903,1732
8.07103,1684
8.17304,1687
8.27504,1611
8.37704,1626
8.47904,1663
8.58104,1591
8.68304,1539
8.78504,1568
8.88704,1613
8.98904,1630
9.09105,1673
9.19305,1623
9.29505,2002
9.39705,2480
9.49905,1551
9.60105,1476
9.70305,1364
9.80505,1435
9.90705,1400
10.00906,1434
10.11106,1410
10.21306,1363
10.31506,1392
10.41706,1343
10.51906,1335
10.62106,1312
10.72306,1318
10.82506,1266
10.92707,1255
11.02907,1261
11.13107,1322
11.23307,1249
11.33507,1273
11.43707,1245
11.53907,1229
11.64107,1176
11.74308,1174
11.84508,1161
11.94708,1185
12.04908,1176
12.15108,1142
12.25308,1146
12.35508,1143
12.45708,1146
12.55908,1157
12.66109,1080
12.76309,1189
12.86509,1136
12.96709,1125
13.06909,1122
13.17109,1115
13.27309,1084
13.37509,1132
13.47709,1076
13.5791,1086
13.6811,1078
13.7831,1051
13.8851,1081
13.9871,1038
14.0891,1014
14.1911,1045
14.2931,1070
14.3951,1039
14.49711,1030
14.59911,1052
14.70111,1071
14.80311,989
14.90511,1022
15.00711,1018
15.10911,1001
15.21111,995
15.31312,968
15.41512,952
15.51712,973
15.61912,1001
15.72112,981
15.82312,994
15.92512,937
16.02712,1014
16.12912,947
16.23113,1003
16.33313,982
16.43513,956
16.53713,958
16.63913,966
16.74113,954
16.84313,1011
16.94513,946
17.04713,925
17.14914,905
17.25114,919
17.35314,920
17.45514,922
17.55714,978
17.65914,948
17.76114,907
17.86314,930
17.96514,911
18.06715,876
18.16915,945
18.27115,899
18.37315,894
18.47515,898
18.57715,917
18.67915,942
18.78115,1169
18.88316,996
18.98516,886
19.08716,925
19.18916,867
19.29116,936
19.39316,943
19.49516,858
19.59716,876
19.69916,871
19.80117,873
19.90317,895
20.00517,877
20.10717,895
20.20917,855
20.31117,892
20.41317,928
20.51517,874
20.61717,880
20.71918,868
20.82118,890
20.92318,843
21.02518,855
21.12718,881
21.22918,831
21.33118,844
21.43318,850
21.53518,861
21.63719,825
21.73919,869
21.84119,862
21.94319,835
22.04519,853
22.14719,846
22.24919,841
22.35119,840
22.45319,847
22.5552,828
22.6572,826
22.7592,801
22.8612,853
22.9632,820
23.0652,834
23.1672,836
23.2692,824
23.37121,806
23.47321,789
23.57521,777
23.67721,785
23.77921,738
23.88121,806
23.98321,752
24.08521,806
24.18721,771
24.28922,748
24.39122,764
24.49322,781
24.59522,786
24.69722,809
24.79922,848
24.90122,871
25.00322,831
25.10522,818
25.20723,805
25.30923,825
25.41123,938
25.51323,1142
25.61523,1743
25.71723,4775
25.81923,4431
25.92123,1376
26.02323,974
26.12524,822
26.22724,804
26.32924,812
26.43124,753
26.53324,712
26.63524,783
26.73724,742
26.83924,703
26.94125,746
27.04325,744
27.14525,748
27.24725,762
27.34925,770
27.45125,764
27.55325,706
27.65525,712
27.75725,691
27.85926,806
27.96126,815
28.06326,823
28.16526,980
28.26726,1346
28.36926,2809
28.47126,1905
28.57326,963
28.67526,755
28.77727,712
28.87927,755
28.98127,750
29.08327,735
29.18527,704
29.28727,729
29.38927,750
29.49127,745
29.59327,698
29.69528,752
29.79728,708
29.89928,728
30.00128,707
30.10328,773
30.20528,812
30.30728,1014
30.40928,1671
30.51129,4640
30.61329,2683
30.71529,1266
30.81729,881
30.91929,818
31.02129,817
31.12329,794
31.22529,798
31.32729,824
31.4293,825
31.5313,885
31.6333,928
31.7353,1414
31.8373,2207
31.9393,5307
32.0413,14318
32.1433,13868
32.2453,4285
32.34731,1906
32.44931,1188
32.55131,931
32.65331,967
32.75531,787
32.85731,812
32.95931,748
33.06131,736
33.16331,692
33.26532,722
33.36732,673
33.46932,687
33.57132,691
33.67332,634
33.77532,645
33.87732,603
33.97932,647
34.08132,679
34.18333,633
34.28533,634
34.38733,666
34.48933,637
34.59133,644
34.69333,661
34.79533,666
34.89733,711
34.99934,650
35.10134,638
35.20334,664
35.30534,663
35.40734,698
35.50934,638
35.61134,695
35.71334,786
35.81534,872
35.91735,1063
36.01935,2161
36.12135,4091
36.22335,2303
36.32535,1043
36.42735,785
36.52935,677
36.63135,626
36.73335,630
36.83536,620
36.93736,599
37.03936,592
37.14136,591
37.24336,597
37.34536,592
37.44736,570
37.54936,604
37.65136,577
37.75337,578
37.85537,599
37.95737,585
38.05937,634
38.16137,761
38.26337,678
38.36537,595
38.46737,540
38.56938,558
38.67138,565
38.77338,567
38.87538,574
38.97738,545
39.07938,562
39.18138,564
39.28338,594
39.38538,624
39.48739,556
39.58939,565
39.69139,528
39.79339,570
39.89539,609
39.99739,611
40.09939,616
40.20139,589
40.30339,561
40.4054,592
40.5074,522
40.6094,554
40.7114,543
40.8134,547
40.9154,521
41.0174,560
41.1194,537
41.2214,556
41.32341,532
41.42541,557
41.52741,556
41.62941,505
41.73141,532
41.83341,563
41.93541,546
42.03741,540
42.13941,570
42.24142,578
42.34342,577
42.44542,568
42.54742,554
42.64942,543
42.75142,541
42.85342,580
42.95542,582
43.05743,572
43.15943,589
43.26143,683
43.36343,731
43.46543,955
43.56743,1425
43.66943,4027
43.77143,3406
43.87343,1972
43.97544,1020
44.07744,793
44.17944,631
44.28144,569
44.38344,579
44.48544,573
44.58744,557
44.68944,583
44.79144,631
44.89345,616
44.99545,544
45.09745,576
45.19945,541
45.30145,544
45.40345,532
45.50545,509
45.60745,557
45.70945,568
45.81146,557
45.91346,573
46.01546,575
46.11746,548
46.21946,553
46.32146,542
46.42346,506
46.52546,519
46.62747,590
46.72947,571
46.83147,579
46.93347,569
47.03547,506
47.13747,529
47.23947,558
47.34147,555
47.44347,577
47.54548,577
47.64748,599
47.74948,604
47.85148,603
47.95348,733
48.05548,938
48.15748,1607
48.25948,2874
48.36148,2086
48.46349,1144
48.56549,1150
48.66749,2148
48.76949,1616
48.87149,1109
48.97349,775
49.07549,665
49.17749,623
49.27949,716
49.3815,838
49.4835,1147
49.5855,2509
49.6875,2294
49.7895,1960
49.8915,965
49.9935,717
50.0955,611
50.19751,611
50.29951,556
50.40151,604
50.50351,580
50.60551,523
50.70751,551
50.80951,547
50.91151,566
51.01351,586
51.11552,598
51.21752,661
51.31952,881
51.42152,1704
51.52352,1310
51.62552,888
51.72752,657
51.82952,601
51.93152,588
52.03353,551
52.13553,567
52.23753,566
52.33953,550
52.44153,507
52.54353,545
52.64553,563
52.74753,587
52.84953,731
52.95154,1013
53.05354,826
53.15554,720
53.25754,588
53.35954,571
53.46154,583
53.56354,552
53.66554,564
53.76754,554
53.86955,538
53.97155,568
54.07355,521
54.17555,515
54.27755,534
54.37955,553
54.48155,564
54.58355,540
54.68556,624
54.78756,629
54.88956,743
54.99156,980
55.09356,1437
55.19556,3603
55.29756,3192
55.39956,3100
55.50156,1274
55.60357,821
55.70557,702
55.80757,630
55.90957,578
56.01157,575
56.11357,546
56.21557,560
56.31757,569
56.41957,523
56.52158,516
56.62358,541
56.72558,523
56.82758,529
56.92958,537
57.03158,537
57.13358,529
57.23558,525
57.33758,506
57.43959,550
57.54159,520
57.64359,577
57.74559,589
57.84759,607
57.94959,793
58.05159,935
58.15359,1932
58.2556,1468
58.3576,1216
58.4596,820
58.5616,680
58.6636,696
58.7656,671
58.8676,639
58.9696,603
59.0716,543
59.17361,561
59.27561,548
59.37761,588
59.47961,637
59.58161,633
59.68361,533
59.78561,555
59.88761,494
59.98961,493
60.09162,510
60.19362,519
60.29562,531
60.39762,473
60.49962,524
60.60162,507
60.70362,499
60.80562,521
60.90762,558
61.00963,517
61.11163,524
61.21363,477
61.31563,507
61.41763,489
61.51963,523
61.62163,505
61.72363,528
61.82563,497
61.92764,474
62.02964,491
62.13164,492
62.23364,483
62.33564,490
62.43764,513
62.53964,464
62.64164,475
62.74365,502
62.84565,502
62.94765,527
63.04965,460
63.15165,551
63.25365,613
63.35565,659
63.45765,1118
63.55965,1412
63.66166,1106
63.76366,845
63.86566,647
63.96766,588
64.06966,526
64.17166,512
64.27366,499
64.37566,490
64.47766,526
64.57967,494
64.68167,499
64.78367,464
64.88567,524
64.98767,516
65.08967,479
65.19167,498
65.29367,502
65.39567,499
65.49768,537
65.59968,504
65.70168,504
65.80368,494
65.90568,514
66.00768,490
66.10968,467
66.21168,502
66.31369,495
66.41569,524
66.51769,518
66.61969,557
66.72169,604
66.82369,599
66.92569,751
67.02769,1096
67.12969,1636
67.2317,1182
67.3337,1208
67.4357,1266
67.5377,1032
67.6397,966
67.7417,745
67.8437,627
67.9457,607
68.0477,541
68.14971,530
68.25171,600
68.35371,582
68.45571,740
68.55771,768
68.65971,673
68.76171,603
68.86371,544
68.96571,505
69.06772,536
69.16972,500
69.27172,503
69.37372,542
69.47572,539
69.57772,571
69.67972,727
69.78172,849
69.88373,705
69.98573,690
70.08773,566
70.18973,553
70.29173,509
70.39373,525
70.49573,510
70.59773,526
70.69973,501
70.80174,510
70.90374,542
71.00574,725
71.10774,608
71.20974,604
71.31174,521
71.41374,527
71.51574,488
71.61774,511
71.71975,546
71.82175,579
71.92375,574
72.02575,724
72.12775,858
72.22975,712
72.33175,767
72.43375,619
72.53575,560
72.63776,589
72.73976,674
72.84176,887
72.94376,1521
73.04576,1028
73.14776,1057
73.24976,747
73.35176,618
73.45376,594
73.55577,518
73.65777,562
73.75977,506
73.86177,568
73.96377,508
74.06577,506
74.16777,487
74.26977,461
74.37178,491
74.47378,474
74.57578,495
74.67778,481
74.77978,550
74.88178,547
74.98378,507
75.08578,550
75.18778,634
75.28979,974
75.39179,757
75.49379,919
75.59579,802
75.69779,671
75.79979,697
75.90179,714
76.00379,728
76.10579,607
76.2078,610
76.3098,532
76.4118,535
76.5138,531
76.6158,553
76.7178,487
76.8198,496
76.9218,523
77.0238,481
77.12581,496
77.22781,517
77.32981,500
77.43181,523
77.53381,555
77.63581,533
77.73781,626
77.83981,616
77.94182,771
78.04382,1162
78.14582,919
78.24782,902
78.34982,837
78.45182,590
78.55382,545
78.65582,520
78.75782,537
78.85983,501
78.96183,491
79.06383,551
79.16583,492
79.26783,514
79.36983,529
79.47183,555
79.57383,632
79.67583,822
79.77784,680
79.87984,698
79.98184,571
80.08384,540
80.18584,507
80.28784,509
80.38984,482
80.49184,504
80.59384,474
80.69585,479
80.79785,453
80.89985,467
81.00185,484
81.10385,488
81.20585,514
81.30785,486
81.40985,482
81.51185,532
81.61386,626
81.71586,650
81.81786,567
81.91986,599
82.02186,518
82.12386,494
82.22586,510
82.32786,509
82.42987,486
82.53187,505
82.63387,517
82.73587,536
82.83787,529
82.93987,520
83.04187,521
83.14387,529
83.24587,537
83.34788,578
83.44988,703
83.55188,906
83.65388,804
83.75588,754
83.85788,900
83.95988,741
84.06188,633
84.16388,648
84.26589,617
84.36789,613
84.46989,726
84.57189,974
84.67389,1039
84.77589,932
84.87789,1103
84.97989,766
85.08189,740
85.1839,607
85.2859,583
85.3879,555
85.4899,542
85.5919,578
85.6939,512
85.7959,580
85.8979,640
85.99991,852
86.10191,805
86.20391,691
86.30591,740
86.40791,642
86.50991,572
86.61191,551
86.71391,471
86.81591,529
86.91792,552
87.01992,518
87.12192,493
87.22392,501
87.32592,512
87.42792,454
87.52992,507
87.63192,466
87.73392,517
87.83593,548
87.93793,500
88.03993,495
88.14193,489
88.24393,495
88.34593,517
88.44793,495
88.54993,500
88.65193,487
88.75394,570
88.85594,611
88.95794,756
89.05994,1090
89.16194,903
89.26394,773
89.36594,850
89.46794,698
89.56995,575
89.67195,548
89.77395,531
89.87595,534
89.97795,469
90.07995,502
90.18195,533
90.28395,487
90.38595,476
90.48796,454
90.58996,451
90.69196,475
90.79396,476
90.89596,472
90.99796,520
91.09996,546
91.20196,532
91.30396,533
91.40597,627
91.50797,878
91.60997,692
91.71197,721
91.81397,718
91.91597,741
92.01797,719
92.11997,635
92.22197,597
92.32398,613
92.42598,542
92.52798,499
92.62998,486
92.73198,553
92.83398,471
92.93598,512
93.03798,474
93.13998,479
93.24199,508
93.34399,486
93.44599,479
93.54799,485
93.64999,486
93.75199,480
93.85399,463
93.95599,499
94.058,487
94.16,484
94.262,506
94.364,482
94.466,506
94.568,497
94.67,483
94.772,503
94.874,487
94.97601,490
95.07801,517
95.18001,505
95.28201,536
95.38401,527
95.48601,622
95.58801,764
95.69001,683
95.79201,616
95.89402,686
95.99602,629
96.09802,616
96.20002,764
96.30202,668
96.40402,556
96.50602,682
96.60802,597
96.71002,514
96.81203,464
96.91403,488
97.01603,513
97.11803,527
97.22003,492
97.32203,543
97.42403,548
97.52603,608
97.62804,658
97.73004,608
97.83204,567
97.93404,580
98.03604,523
98.13804,504
98.24004,512
98.34204,507
98.44404,504
98.54605,467
98.64805,493
98.75005,503
98.85205,488
98.95405,493
99.05605,491
99.15805,503
99.26005,482
99.36205,524
99.46406,513
99.56606,554
99.66806,524
99.77006,579
99.87206,631
99.97406,562
100.076,529
100.178,590
100.28,493
100.382,474
100.484,526
100.586,510
100.688,544
100.79,562
100.892,530
100.994,510
101.096,475
101.198,501
101.3,524
101.402,542
101.504,503
101.606,518
101.708,535
101.81,561
101.912,615
102.014,689
102.116,677
102.218,621
102.32,639
102.422,618
102.524,595
102.626,566
102.728,611
102.83,580
102.932,551
103.0341,587
103.1361,585
103.2381,600
103.3401,515
103.4421,556
103.5441,533
103.6461,519
103.7481,550
103.8501,493
103.952,545
104.054,537
104.156,518
104.258,571
104.36,587
104.462,576
104.564,594
104.666,580
104.768,601
104.87,645
104.972,754
105.074,921
105.176,959
105.278,765
105.38,736
105.482,809
105.584,728
105.686,669
105.788,706
105.89,824
105.992,816
106.094,706
106.196,661
106.298,726
106.4,602
106.502,586
106.604,549
106.706,550
106.808,520
106.91,546
107.012,531
107.114,534
107.216,545
107.318,518
107.42,528
107.522,547
107.624,593
107.726,599
107.828,595
107.93,605
108.032,610
108.134,665
108.236,592
108.338,566
108.44,591
108.542,576
108.644,554
108.746,579
108.848,531
108.95,545
109.052,524
109.154,535
109.256,454
109.358,547
109.46,559
109.562,524
109.664,515
109.766,559
109.868,545
109.97,579
110.072,645
110.174,701
110.276,946
110.378,829
110.48,712
110.582,661
110.684,772
110.786,716
110.888,610
110.99,600
111.092,534
111.194,517
111.296,487
111.398,554
111.5,537
111.602,516
111.704,549
111.806,523
111.908,561
112.0102,607
112.1122,582
112.2142,594
112.3162,583
112.4182,639
112.5202,670
112.6222,812
112.7242,767
112.8262,665
112.928,643
113.03,657
113.132,645
113.234,619
113.336,562
113.438,579
113.54,521
113.642,538
113.744,551
113.846,552
113.948,568
114.05,591
114.152,620
114.254,565
114.356,533
114.458,530
114.56,554
114.662,542
114.764,534
114.866,533
114.968,506
115.07,528
115.172,546
115.274,483
115.376,523
115.478,507
115.58,523
115.682,528
115.784,530
115.886,569
115.988,572
116.09,632
116.192,696
116.294,742
116.396,675
116.498,659
116.6,703
116.702,739
116.804,657
116.906,617
117.008,639
117.11,589
117.212,567
117.314,622
117.416,660
117.518,637
117.62,655
117.722,666
117.824,651
117.926,612
118.028,604
118.13,622
118.232,584
118.334,546
118.436,542
118.538,519
118.64,534
118.742,521
118.844,544
118.946,506
119.048,551
119.15,526
119.252,509
119.354,499
119.456,535
119.558,528
119.66,521
119.762,536
119.864,575
119.966,513
120.068,544
120.17,526
120.272,537
120.374,579
120.476,573
120.578,567
120.68,568
120.782,546
120.8843,527
120.9863,553
121.0883,552
121.1903,547
121.2923,534
121.3943,522
121.4963,521
121.5983,515
121.7003,522
121.802,569
121.904,527
122.006,553
122.108,512
122.21,536
122.312,519
122.414,549
122.516,537
122.618,516
122.72,564
122.822,616
122.924,572
123.026,647
123.128,626
123.23,713
123.332,766
123.434,915
123.536,938
123.638,781
123.74,711
123.842,718
123.944,766
124.046,786
124.148,689
124.25,607
124.352,591
124.454,567
124.556,558
124.658,565
124.76,576
124.862,563
124.964,526
125.066,555
125.168,571
125.27,562
125.372,618
125.474,710
125.576,630
125.678,646
125.78,596
125.882,571
125.984,648
126.086,716
126.188,626
126.29,591
126.392,589
126.494,596
126.596,558
126.698,618
126.8,596
126.902,553
127.004,539
127.106,592
127.208,527
127.31,542
127.412,541
127.514,564
127.616,577
127.718,591
127.82,605
127.922,590
128.024,532
128.126,607
128.228,582
128.33,625
128.432,535
128.534,554
128.636,543
128.738,557
128.84,533
128.942,548
129.044,580
129.146,502
129.248,539
129.35,560
129.452,560
129.554,552
129.656,541
129.758,535
129.8604,568
129.9624,557
130.0644,543
130.1664,550
130.2684,512
130.3704,553
130.4724,558
130.5744,646
130.6764,656
130.778,617
130.88,560
130.982,555
131.084,524
131.186,611
131.288,613
131.39,578
131.492,586
131.594,532
131.696,554
131.798,539
131.9,550
132.002,523
132.104,510
132.206,542
132.308,536
132.41,546
132.512,541
132.614,546
132.716,553
132.818,589
132.92,528
133.022,532
133.124,542
133.226,512
133.328,494
133.43,513
133.532,534
133.634,522
133.736,486
133.838,522
133.94,511
134.042,532
134.144,507
134.246,520
134.348,543
134.45,553
134.552,517
134.654,531
134.756,561
134.858,551
134.96,566
134.977,571