File: data/xrd_icdd_PDF/00-067-0714 (PD3).csv
5.011,1537
5.113,1530
5.215,1555
5.317,1507
5.419,1460
5.521,1474
5.623,1461
5.725,1545
5.827,1557
5.929,1848
6.031,2034
6.133,2642
6.235,4213
6.337,8328
6.439,20844
6.541,2220
6.643,1663
6.745,1479
6.847,1379
6.949,1306
7.051,1280
7.153,1188
7.255,1178
7.357,1197
7.459,1138
7.561,1085
7.663,1079
7.765,1096
7.867,1056
7.969,1027
8.071,993
8.173,973
8.275,989
8.377,962
8.479,965
8.581,956
8.683,971
8.785,954
8.887,902
8.989,899
9.091,954
9.193,881
9.295,885
9.397,875
9.499,888
9.601,904
9.703,874
9.805,829
9.907,837
10.009,812
10.111,836
10.213,850
10.315,809
10.417,813
10.519,797
10.621,785
10.723,857
10.825,830
10.927,777
11.029,754
11.131,857
11.233,788
11.335,759
11.437,782
11.539,729
11.641,793
11.743,786
11.845,787
11.947,774
12.049,771
12.151,756
12.253,701
12.355,724
12.457,747
12.559,734
12.661,720
12.763,781
12.865,800
12.967,721
13.069,753
13.171,729
13.273,719
13.375,686
13.477,718
13.579,707
13.681,739
13.783,695
13.885,676
13.987,697
14.089,710
14.191,703
14.293,684
14.395,672
14.497,694
14.599,687
14.701,691
14.803,664
14.905,657
15.007,670
15.109,656
15.211,684
15.313,725
15.415,683
15.517,714
15.619,758
15.721,809
15.823,675
15.925,688
16.027,656
16.129,682
16.231,671
16.333,633
16.435,637
16.537,620
16.639,636
16.741,635
16.843,651
16.945,635
17.047,656
17.149,683
17.251,629
17.353,669
17.455,671
17.557,673
17.659,691
17.761,682
17.863,608
17.965,664
18.067,646
18.169,661
18.271,658
18.373,660
18.475,711
18.577,663
18.679,786
18.781,852
18.883,913
18.985,1211
19.087,2094
19.189,6298
19.291,25738
19.393,2835
19.495,1326
19.597,877
19.699,768
19.801,715
19.903,733
20.005,660
20.107,641
20.209,662
20.311,602
20.413,645
20.515,639
20.617,606
20.719,686
20.821,641
20.923,632
21.025,682
21.127,575
21.229,569
21.331,642
21.433,650
21.535,613
21.637,662
21.739,643
21.841,650
21.943,694
22.045,668
22.147,683
22.249,710
22.351,799
22.453,953
22.555,1282
22.657,2856
22.759,3261
22.861,1037
22.963,794
23.065,768
23.167,728
23.269,786
23.371,770
23.473,740
23.575,724
23.677,694
23.779,604
23.881,609
23.983,626
24.085,618
24.187,635
24.289,623
24.391,673
24.493,762
24.595,768
24.697,927
24.799,928
24.901,1339
25.003,1674
25.105,2198
25.207,4502
25.309,13314
25.411,9603
25.513,3312
25.615,3916
25.717,12829
25.819,44143
25.921,6739
26.023,2667
26.125,1578
26.227,1250
26.329,1100
26.431,968
26.533,932
26.635,927
26.737,925
26.839,832
26.941,780
27.043,869
27.145,837
27.247,743
27.349,759
27.451,696
27.553,761
27.655,751
27.757,697
27.859,677
27.961,726
28.063,907
28.165,739
28.267,659
28.369,649
28.471,654
28.573,693
28.675,688
28.777,645
28.879,655
28.981,578
29.083,605
29.185,621
29.287,619
29.389,584
29.491,567
29.593,591
29.695,577
29.797,575
29.899,675
30.001,732
30.103,813
30.205,698
30.307,693
30.409,716
30.511,787
30.613,822
30.715,1196
30.817,2057
30.919,6445
31.021,6925
31.123,2242
31.225,1136
31.327,888
31.429,864
31.531,1074
31.633,1650
31.735,1360
31.837,895
31.939,700
32.041,651
32.143,666
32.245,789
32.347,1641
32.449,2081
32.551,893
32.653,635
32.755,693
32.857,649
32.959,625
33.061,597
33.163,576
33.265,577
33.367,540
33.469,602
33.571,664
33.673,709
33.775,610
33.877,597
33.979,741
34.081,600
34.183,514
34.285,491
34.387,471
34.489,384
34.591,444
34.693,491
34.795,538
34.897,513
34.999,469
35.101,459
35.203,461
35.305,468
35.407,474
35.509,551
35.611,482
35.713,512
35.815,490
35.917,502
36.019,502
36.121,534
36.223,505
36.325,494
36.427,526
36.529,607
36.631,799
36.733,1273
36.835,944
36.937,569
37.039,471
37.141,462
37.243,453
37.345,433
37.447,464
37.549,477
37.651,451
37.753,451
37.855,471
37.957,479
38.059,436
38.161,460
38.263,464
38.365,483
38.467,501
38.569,480
38.671,503
38.773,500
38.875,526
38.977,586
39.079,765
39.181,938
39.283,1931
39.385,3406
39.487,1999
39.589,915
39.691,681
39.793,664
39.895,676
39.997,641
40.099,660
40.201,677
40.303,811
40.405,1006
40.507,1490
40.609,3449
40.711,7496
40.813,5151
40.915,2216
41.017,1170
41.119,890
41.221,750
41.323,727
41.425,636
41.527,594
41.629,571
41.731,564
41.833,564
41.935,557
42.037,529
42.139,548
42.241,508
42.343,552
42.445,514
42.547,507
42.649,494
42.751,508
42.853,484
42.955,538
43.057,502
43.159,511
43.261,514
43.363,467
43.465,575
43.567,556
43.669,559
43.771,549
43.873,569
43.975,615
44.077,746
44.179,1062
44.281,2320
44.383,3183
44.485,2248
44.587,974
44.689,794
44.791,817
44.893,947
44.995,1232
45.097,2573
45.199,5716
45.301,3868
45.403,1739
45.505,1076
45.607,888
45.709,791
45.811,904
45.913,1972
46.015,2279
46.117,1866
46.219,765
46.321,718
46.423,614
46.525,604
46.627,561
46.729,564
46.831,523
46.933,499
47.035,481
47.137,493
47.239,513
47.341,540
47.443,510
47.545,529
47.647,488
47.749,484
47.851,517
47.953,451
48.055,461
48.157,478
48.259,490
48.361,478
48.463,568
48.565,517
48.667,676
48.769,1047
48.871,871
48.973,610
49.075,539
49.177,509
49.279,431
49.381,484
49.483,486
49.585,444
49.687,485
49.789,504
49.891,577
49.993,557
50.095,552
50.197,591
50.299,791
50.401,1002
50.503,808
50.605,664
50.707,591
50.809,547
50.911,530
51.013,551
51.115,614
51.217,632
51.319,691
51.421,884
51.523,1016
51.625,1581
51.727,2815
51.829,3007
51.931,3084
52.033,2809
52.135,1946
52.237,1165
52.339,808
52.441,682
52.543,640
52.645,591
52.747,638
52.849,730
52.951,1667
53.053,1722
53.155,1924
53.257,709
53.359,563
53.461,440
53.563,481
53.665,484
53.767,479
53.869,453
53.971,504
54.073,469
54.175,427
54.277,460
54.379,430
54.481,434
54.583,458
54.685,428
54.787,427
54.889,420
54.991,459
55.093,452
55.195,438
55.297,468
55.399,468
55.501,464
55.603,441
55.705,468
55.807,524
55.909,574
56.011,602
56.113,651
56.215,677
56.317,1029
56.419,1761
56.521,1612
56.623,1355
56.725,727
56.827,600
56.929,555
57.031,557
57.133,465
57.235,436
57.337,458
57.439,437
57.541,443
57.643,499
57.745,454
57.847,426
57.949,416
58.051,411
58.153,387
58.255,406
58.357,392
58.459,408
58.561,399
58.663,426
58.765,409
58.867,423
58.969,380
59.071,420
59.173,414
59.275,429
59.377,393
59.479,403
59.581,442
59.683,403
59.785,404
59.887,394
59.989,419
60.091,395
60.193,404
60.295,437
60.397,444
60.499,495
60.601,610
60.703,826
60.805,1109
60.907,795
61.009,652
61.111,469
61.213,439
61.315,399
61.417,423
61.519,416
61.621,397
61.723,413
61.825,401
61.927,390
62.029,400
62.131,396
62.233,461
62.335,489
62.437,561
62.539,847
62.641,1203
62.743,1000
62.845,930
62.947,632
63.049,490
63.151,438
63.253,422
63.355,449
63.457,450
63.559,425
63.661,454
63.763,433
63.865,442
63.967,419
64.069,454
64.171,500
64.273,599
64.375,735
64.477,912
64.579,1127
64.681,913
64.783,1369
64.885,1529
64.987,1511
65.089,1629
65.191,1990
65.293,1346
65.395,1205
65.497,826
65.599,742
65.701,908
65.803,940
65.905,891
66.007,695
66.109,536
66.211,504
66.313,462
66.415,469
66.517,425
66.619,419
66.721,451
66.823,394
66.925,414
67.027,414
67.129,412
67.231,412
67.333,400
67.435,437
67.537,437
67.639,424
67.741,441
67.843,458
67.945,491
68.047,546
68.149,470
68.251,484
68.353,441
68.455,423
68.557,392
68.659,396
68.761,396
68.863,408
68.965,422
69.067,424
69.169,454
69.271,505
69.373,509
69.475,493
69.577,475
69.679,459
69.781,434
69.883,464
69.985,464
70.087,454
70.189,510
70.291,568
70.393,788
70.495,1049
70.597,917
70.699,1116
70.801,882
70.903,775
71.005,648
71.107,571
71.209,545
71.311,567
71.413,750
71.515,882
71.617,805
71.719,751
71.821,605
71.923,518
72.025,710
72.127,1017
72.229,750
72.331,863
72.433,616
72.535,520
72.637,474
72.739,481
72.841,471
72.943,516
73.045,521
73.147,745
73.249,910
73.351,896
73.453,744
73.555,697
73.657,561
73.759,529
73.861,496
73.963,475
74.065,484
74.167,420
74.269,445
74.371,458
74.473,428
74.575,431
74.677,430
74.779,415
74.881,418
74.983,441
75.085,421
75.187,436
75.289,427
75.391,441
75.493,479
75.595,689
75.697,1269
75.799,639
75.901,886
76.003,525
76.105,421
76.207,431
76.309,414
76.411,400
76.513,478
76.615,512
76.717,494
76.819,448
76.921,432
77.023,399
77.125,399
77.227,387
77.329,394
77.431,378
77.533,377
77.635,390
77.737,400
77.839,430
77.941,393
78.043,442
78.145,455
78.247,558
78.349,516
78.451,482
78.553,463
78.655,486
78.757,479
78.859,532
78.961,702
79.063,939
79.165,1125
79.267,890
79.369,888
79.471,708
79.573,508
79.675,460
79.777,423
79.879,421
79.981,421
80.083,416
80.185,408
80.287,393
80.389,413
80.491,383
80.593,414
80.695,398
80.797,428
80.899,397
81.001,382
81.103,426
81.205,401
81.307,397
81.409,418
81.511,402
81.613,460
81.715,515
81.817,581
81.919,716
82.021,756
82.123,783
82.225,813
82.327,656
82.429,635
82.531,633
82.633,538
82.735,524
82.837,564
82.939,505
83.041,508
83.143,471
83.245,443
83.347,452
83.449,436
83.551,451
83.653,483
83.755,514
83.857,752
83.959,992
84.061,832
84.163,733
84.265,775
84.367,547
84.469,486
84.571,445
84.673,416
84.775,412
84.877,398
84.979,438
85.081,410
85.183,392
85.285,416
85.387,387
85.489,404
85.591,428
85.693,406
85.795,424
85.897,425
85.999,483
86.101,445
86.203,448
86.305,429
86.407,439
86.509,413
86.611,413
86.713,404
86.815,425
86.917,470
87.019,606
87.121,616
87.223,680
87.325,654
87.427,572
87.529,538
87.631,458
87.733,439
87.835,473
87.937,535
88.039,552
88.141,581
88.243,578
88.345,538
88.447,584
88.549,597
88.651,615
88.753,679
88.855,642
88.957,559
89.059,574
89.161,441
89.263,442
89.365,398
89.467,414
89.569,401
89.671,424
89.773,384
89.875,378
89.977,395
90.079,421
90.181,428
90.283,404
90.385,419
90.487,418
90.589,434
90.691,458
90.793,551
90.895,579
90.997,646
91.099,588
91.201,557
91.303,550
91.405,481
91.507,485
91.609,466
91.711,459
91.813,480
91.915,552
92.017,769
92.119,846
92.221,869
92.323,748
92.425,698
92.527,605
92.629,513
92.731,444
92.833,393
92.935,404
93.037,400
93.139,412
93.241,384
93.343,374
93.445,379
93.547,362
93.649,355
93.751,382
93.853,376
93.955,400
94.057,405
94.159,376
94.261,389
94.363,387
94.465,457
94.567,472
94.669,481
94.771,459
94.873,443
94.975,457
95.077,413
95.179,378
95.281,376
95.383,396
95.485,392
95.587,399
95.689,393
95.791,437
95.893,389
95.995,463
96.097,501
96.199,527
96.301,574
96.403,527
96.505,531
96.607,489
96.709,516
96.811,560
96.913,643
97.015,835
97.117,643
97.219,574
97.321,636
97.423,611
97.525,426
97.627,448
97.729,449
97.831,484
97.933,548
98.035,562
98.137,516
98.239,550
98.341,683
98.443,591
98.545,589
98.647,705
98.749,633
98.851,529
98.953,510
99.055,518
99.157,449
99.259,449
99.361,398
99.463,413
99.565,427
99.667,419
99.769,420
99.871,386
99.973,408
100.075,383
100.177,453
100.279,450
100.381,455
100.483,461
100.585,432
100.687,440
100.789,426
100.891,398
100.993,384
101.095,384
101.197,431
101.299,435
101.401,397
101.503,394
101.605,388
101.707,395
101.809,407
101.911,415
102.013,398
102.115,418
102.217,403
102.319,421
102.421,414
102.523,468
102.625,403
102.727,432
102.829,432
102.931,406
103.033,447
103.135,421
103.237,421
103.339,498
103.441,570
103.543,624
103.645,634
103.747,647
103.849,586
103.951,592
104.053,554
104.155,480
104.257,503
104.359,432
104.461,416
104.563,420
104.665,417
104.767,427
104.869,418
104.971,415
105.073,458
105.175,436
105.277,459
105.379,417
105.481,437
105.583,417
105.685,453
105.787,394
105.889,396
105.991,417
106.093,406
106.195,453
106.297,452
106.399,448
106.501,479
106.603,443
106.705,455
106.807,445
106.909,485
107.011,432
107.113,426
107.215,399
107.317,439
107.419,367
107.521,406
107.623,395
107.725,447
107.827,458
107.929,402
108.031,440
108.133,405
108.235,441
108.337,443
108.439,480
108.541,497
108.643,513
108.745,509
108.847,576
108.949,528
109.051,468
109.153,486
109.255,508
109.357,490
109.459,450
109.561,426
109.663,444
109.765,465
109.867,414
109.969,420
110.071,415
110.173,388
110.275,411
110.377,386
110.479,411
110.581,398
110.683,389
110.785,389
110.887,402
110.989,397
111.091,398
111.193,403
111.295,423
111.397,440
111.499,488
111.601,452
111.703,460
111.805,431
111.907,452
112.009,462
112.111,466
112.213,460
112.315,489
112.417,521
112.519,506
112.621,506
112.723,472
112.825,455
112.927,481
113.029,474
113.131,441
113.233,492
113.335,442
113.437,508
113.539,616
113.641,568
113.743,569
113.845,616
113.947,695
114.049,687
114.151,672
114.253,585
114.355,573
114.457,621
114.559,586
114.661,566
114.763,528
114.865,587
114.967,564
115.069,535
115.171,640
115.273,634
115.375,615
115.477,672
115.579,658
115.681,717
115.783,677
115.885,604
115.987,607
116.089,617
116.191,568
116.293,583
116.395,570
116.497,551
116.599,468
116.701,492
116.803,508
116.905,484
117.007,459
117.109,494
117.211,520
117.313,550
117.415,557
117.517,610
117.619,620
117.721,656
117.823,676
117.925,622
118.027,561
118.129,540
118.231,567
118.333,513
118.435,480
118.537,473
118.639,455
118.741,452
118.843,486
118.945,461
119.047,456
119.149,433
119.251,407
119.353,442
119.455,417
119.557,395
119.659,418
119.761,426
119.863,432
119.965,434
120.067,433
120.169,422
120.271,483
120.373,429
120.475,426
120.577,446
120.679,447
120.781,458
120.883,426
120.985,509
121.087,467
121.189,505
121.291,528
121.393,538
121.495,537
121.597,601
121.699,616
121.801,539
121.903,569
122.005,561
122.107,544
122.209,565
122.311,574
122.413,589
122.515,606
122.617,655
122.719,719
122.821,765
122.923,684
123.025,607
123.127,608
123.229,687
123.331,648
123.433,571
123.535,520
123.637,502
123.739,472
123.841,489
123.943,437
124.045,450
124.147,458
124.249,453
124.351,396
124.453,434
124.555,463
124.657,443
124.759,449
124.861,439
124.963,477
125.065,503
125.167,439
125.269,504
125.371,462
125.473,451
125.575,473
125.677,473
125.779,472
125.881,485
125.983,515
126.085,523
126.187,478
126.289,522
126.391,481
126.493,472
126.595,466
126.697,462
126.799,468
126.901,467
127.003,466
127.105,511
127.207,510
127.309,500
127.411,513
127.513,542
127.615,461
127.717,504
127.819,512
127.921,486
128.023,466
128.125,492
128.227,477
128.329,440
128.431,480
128.533,408
128.635,421
128.737,424
128.839,465
128.941,431
129.043,420
129.145,421
129.247,408
129.349,419
129.451,455
129.553,418
129.655,400
129.757,428
129.859,436
129.961,428
130.063,429
130.165,413
130.267,405
130.369,427
130.471,459
130.573,401
130.675,411
130.777,423
130.879,403
130.981,434
131.083,401
131.185,461
131.287,417
131.389,457
131.491,463
131.593,477
131.695,418
131.797,452
131.899,432
132.001,452
132.103,446
132.205,476
132.307,477
132.409,473
132.511,494
132.613,466
132.715,485
132.817,553
132.919,563
133.021,625
133.123,600
133.225,576
133.327,586
133.429,612
133.531,551
133.633,590
133.735,523
133.837,575
133.939,562
134.041,578
134.143,523
134.245,517
134.347,485
134.449,514
134.551,495
134.653,503
134.755,466
134.857,485
134.959,482
134.976,491