File: data/xrd_icdd_PDF/00-063-0342 (PD3).csv
20,434
20.09,450
20.18,469
20.27,496
20.36,465
20.45,482
20.54,384
20.63,411
20.72,425
20.81,405
20.9,444
20.99,411
21.08,397
21.17,384
21.26,410
21.35,387
21.44,402
21.53,396
21.62,387
21.71,385
21.8,399
21.89,378
21.98,394
22.07,361
22.16,408
22.25,370
22.34,436
22.43,553
22.52,682
22.61,1006
22.7,1609
22.79,1771
22.88,1205
22.97,813
23.06,492
23.15,407
23.24,381
23.33,481
23.42,499
23.51,712
23.6,1205
23.69,963
23.78,410
23.87,322
23.96,277
24.05,319
24.14,243
24.23,285
24.32,309
24.41,276
24.5,265
24.59,286
24.68,237
24.77,275
24.86,274
24.95,259
25.04,294
25.13,261
25.22,254
25.31,260
25.4,237
25.49,235
25.58,289
25.67,324
25.76,254
25.85,295
25.94,228
26.03,282
26.12,229
26.21,304
26.3,245
26.39,222
26.48,222
26.57,236
26.66,265
26.75,220
26.84,206
26.93,226
27.02,220
27.11,229
27.2,202
27.29,213
27.38,216
27.47,234
27.56,210
27.65,215
27.74,208
27.83,237
27.92,208
28.01,246
28.1,207
28.19,224
28.28,204
28.37,221
28.46,252
28.55,284
28.64,315
28.73,264
28.82,232
28.91,227
29,219
29.09,208
29.18,208
29.27,239
29.36,200
29.45,201
29.54,230
29.63,196
29.72,209
29.81,215
29.9,194
29.99,196
30.08,215
30.17,228
30.26,207
30.35,202
30.44,213
30.53,190
30.62,192
30.71,216
30.8,179
30.89,213
30.98,215
31.07,223
31.16,201
31.25,234
31.34,215
31.43,247
31.52,248
31.61,243
31.7,252
31.79,285
31.88,327
31.97,414
32.06,558
32.15,708
32.24,1241
32.33,2594
32.42,5544
32.51,5490
32.6,2407
32.69,1309
32.78,1932
32.87,3678
32.96,8290
33.05,12479
33.14,8996
33.23,3696
33.32,1339
33.41,712
33.5,458
33.59,358
33.68,314
33.77,242
33.86,222
33.95,234
34.04,217
34.13,211
34.22,218
34.31,197
34.4,220
34.49,238
34.58,266
34.67,270
34.76,216
34.85,174
34.94,154
35.03,181
35.12,193
35.21,196
35.3,161
35.39,175
35.48,175
35.57,169
35.66,189
35.75,286
35.84,251
35.93,212
36.02,147
36.11,177
36.2,198
36.29,175
36.38,178
36.47,198
36.56,168
36.65,174
36.74,186
36.83,169
36.92,160
37.01,178
37.1,177
37.19,152
37.28,157
37.37,146
37.46,150
37.55,156
37.64,170
37.73,161
37.82,164
37.91,161
38,161
38.09,155
38.18,150
38.27,161
38.36,152
38.45,143
38.54,147
38.63,143
38.72,138
38.81,143
38.9,149
38.99,151
39.08,154
39.17,166
39.26,135
39.35,151
39.44,152
39.53,158
39.62,158
39.71,171
39.8,171
39.89,190
39.98,224
40.07,293
40.16,325
40.25,420
40.34,708
40.43,1706
40.52,3575
40.61,2491
40.7,1056
40.79,402
40.88,267
40.97,226
41.06,195
41.15,176
41.24,163
41.33,167
41.42,165
41.51,173
41.6,182
41.69,192
41.78,164
41.87,153
41.96,157
42.05,177
42.14,180
42.23,149
42.32,152
42.41,159
42.5,148
42.59,179
42.68,181
42.77,186
42.86,191
42.95,165
43.04,149
43.13,167
43.22,161
43.31,163
43.4,196
43.49,238
43.58,178
43.67,145
43.76,128
43.85,123
43.94,141
44.03,121
44.12,136
44.21,153
44.3,132
44.39,148
44.48,128
44.57,144
44.66,143
44.75,128
44.84,156
44.93,157
45.02,135
45.11,151
45.2,148
45.29,129
45.38,143
45.47,160
45.56,140
45.65,183
45.74,192
45.83,221
45.92,248
46.01,293
46.1,398
46.19,627
46.28,1158
46.37,1823
46.46,2224
46.55,1935
46.64,1341
46.73,1114
46.82,1276
46.91,858
47,484
47.09,310
47.18,262
47.27,205
47.36,208
47.45,194
47.54,192
47.63,198
47.72,193
47.81,188
47.9,222
47.99,246
48.08,357
48.17,601
48.26,1339
48.35,1865
48.44,1213
48.53,617
48.62,266
48.71,206
48.8,187
48.89,163
48.98,156
49.07,156
49.16,143
49.25,127
49.34,138
49.43,124
49.52,134
49.61,156
49.7,124
49.79,130
49.88,143
49.97,127
50.06,132
50.15,146
50.24,129
50.33,128
50.42,130
50.51,139
50.6,132
50.69,127
50.78,118
50.87,134
50.96,122
51.05,127
51.14,131
51.23,124
51.32,118
51.41,134
51.5,126
51.59,124
51.68,132
51.77,142
51.86,148
51.95,162
52.04,183
52.13,184
52.22,271
52.31,419
52.4,405
52.49,381
52.58,407
52.67,464
52.76,445
52.85,354
52.94,278
53.03,263
53.12,265
53.21,204
53.3,172
53.39,154
53.48,154
53.57,160
53.66,166
53.75,172
53.84,199
53.93,333
54.02,616
54.11,598
54.2,421
54.29,271
54.38,174
54.47,160
54.56,135
54.65,128
54.74,129
54.83,125
54.92,142
55.01,137
55.1,121
55.19,123
55.28,124
55.37,122
55.46,138
55.55,140
55.64,133
55.73,134
55.82,125
55.91,147
56,152
56.09,151
56.18,160
56.27,152
56.36,181
56.45,161
56.54,162
56.63,143
56.72,163
56.81,138
56.9,158
56.99,151
57.08,160
57.17,162
57.26,153
57.35,157
57.44,171
57.53,204
57.62,241
57.71,291
57.8,394
57.89,529
57.98,798
58.07,1875
58.16,3538
58.25,3078
58.34,2780
58.43,2411
58.52,1441
58.61,1043
58.7,496
58.79,371
58.88,337
58.97,361
59.06,398
59.15,484
59.24,726
59.33,1730
59.42,3278
59.51,1682
59.6,1597
59.69,504
59.78,338
59.87,268
59.96,240
60.05,222
60.14,202
60.23,222
60.32,208
60.41,170
60.5,154
60.59,164
60.68,181
60.77,169
60.86,132
60.95,154
61.04,127
61.13,135
61.22,125
61.31,134
61.4,136
61.49,131
61.58,134
61.67,146
61.76,131
61.85,146
61.94,128
62.03,123
62.12,130
62.21,120
62.3,128
62.39,125
62.48,118
62.57,117
62.66,125
62.75,117
62.84,127
62.93,124
63.02,122
63.11,117
63.2,103
63.29,126
63.38,122
63.47,115
63.56,120
63.65,118
63.74,129
63.83,126
63.92,134
64.01,157
64.1,150
64.19,138
64.28,126
64.37,137
64.46,122
64.55,146
64.64,136
64.73,137
64.82,135
64.91,140
65,142
65.09,141
65.18,111
65.27,134
65.36,137
65.45,144
65.54,151
65.63,157
65.72,126
65.81,115
65.9,116
65.99,129
66.08,122
66.17,127
66.26,120
66.35,119
66.44,106
66.53,139
66.62,117
66.71,112
66.8,131
66.89,125
66.98,113
67.07,125
67.16,132
67.25,119
67.34,151
67.43,168
67.52,194
67.61,225
67.7,362
67.79,569
67.88,801
67.97,998
68.06,615
68.15,546
68.24,318
68.33,221
68.42,180
68.51,185
68.6,156
68.69,179
68.78,199
68.87,235
68.96,290
69.05,415
69.14,741
69.23,1036
69.32,1207
69.41,909
69.5,1081
69.59,686
69.68,487
69.77,375
69.86,225
69.95,173
70.04,146
70.13,149
70.22,140
70.31,136
70.4,136
70.49,128
70.58,138
70.67,145
70.76,128
70.85,157
70.94,149
71.03,127
71.12,134
71.21,136
71.3,165
71.39,147
71.48,138
71.57,110
71.66,121
71.75,128
71.84,124
71.93,120
72.02,120
72.11,119
72.2,130
72.29,140
72.38,145
72.47,148
72.56,154
72.65,162
72.74,160
72.83,195
72.92,211
73.01,250
73.1,234
73.19,188
73.28,209
73.37,168
73.46,132
73.55,140
73.64,166
73.73,137
73.82,180
73.91,305
74,362
74.09,329
74.18,345
74.27,241
74.36,185
74.45,154
74.54,135
74.63,120
74.72,137
74.81,124
74.9,123
74.99,126
75.08,122
75.17,128
75.26,128
75.35,118
75.44,135
75.53,130
75.62,174
75.71,211
75.8,182
75.89,165
75.98,170
76.07,132
76.16,125
76.25,144
76.34,120
76.43,143
76.52,153
76.61,161
76.7,165
76.79,205
76.88,242
76.97,384
77.06,504
77.15,544
77.24,619
77.33,628
77.42,557
77.51,630
77.6,601
77.69,531
77.78,473
77.87,368
77.96,388
78.05,401
78.14,332
78.23,270
78.32,276
78.41,220
78.5,168
78.59,175
78.68,137
78.77,134
78.86,137
78.95,133
79.04,134
79.13,162
79.22,166
79.31,154
79.4,142
79.49,146
79.58,159
79.67,159
79.76,156
79.85,182
79.94,190
80.03,243
80.12,338
80.21,622
80.3,941
80.39,652
80.48,523
80.57,560
80.66,271
80.75,185
80.84,151
80.93,149
81.02,135
81.11,127
81.2,124
81.29,114
81.38,134
81.47,130
81.56,128
81.65,137
81.74,180
81.83,223
81.92,263
82.01,316
82.1,304
82.19,267
82.28,252
82.37,225
82.46,200
82.55,236
82.64,234
82.73,168
82.82,180
82.91,150
83,127
83.09,124
83.18,127
83.27,137
83.36,132
83.45,121
83.54,134
83.63,126
83.72,115
83.81,131
83.9,116
83.99,133
84.08,125
84.17,135
84.26,124
84.35,122
84.44,142
84.53,141
84.62,147
84.71,203
84.8,302
84.89,200
84.98,182
85.07,211
85.16,150
85.25,132
85.34,117
85.43,129
85.52,116
85.61,109
85.7,101
85.79,119
85.88,109
85.97,115
86.06,123
86.15,107
86.24,119
86.33,115
86.42,116
86.51,120
86.6,115
86.69,125
86.78,129
86.87,124
86.96,133
87.05,140
87.14,153
87.23,165
87.32,204
87.41,237
87.5,415
87.59,628
87.68,746
87.77,445
87.86,416
87.95,443
88.04,246
88.13,176
88.22,152
88.31,139
88.4,133
88.49,139
88.58,125
88.67,120
88.76,127
88.85,121
88.94,134
89.03,104
89.12,118
89.21,121
89.3,123
89.39,112
89.48,119
89.57,122
89.66,118
89.75,105
89.84,126
89.93,123
90.02,111
90.11,115
90.2,114
90.29,124
90.38,132
90.47,133
90.56,146
90.65,151
90.74,145
90.83,142
90.92,132
91.01,133
91.1,143
91.19,144
91.28,129
91.37,130
91.46,135
91.55,133
91.64,124
91.73,134
91.82,145
91.91,151
92,150
92.09,156
92.18,143
92.27,131
92.36,140
92.45,129
92.54,146
92.63,127
92.72,146
92.81,125
92.9,140
92.99,122
93.08,121
93.17,126
93.26,139
93.35,128
93.44,144
93.53,158
93.62,178
93.71,198
93.8,208
93.89,194
93.98,192
94.07,180
94.16,155
94.25,143
94.34,141
94.43,136
94.52,143
94.61,139
94.7,136
94.79,135
94.88,156
94.97,167
95.06,167
95.15,210
95.24,251
95.33,392
95.42,522
95.51,598
95.6,477
95.69,436
95.78,508
95.87,532
95.96,393
96.05,322
96.14,328
96.23,456
96.32,503
96.41,512
96.5,631
96.59,543
96.68,446
96.77,445
96.86,441
96.95,451
97.04,360
97.13,262
97.22,256
97.31,247
97.4,222
97.49,168
97.58,182
97.67,189
97.76,188
97.85,219
97.94,254
98.03,372
98.12,606
98.21,811
98.3,627
98.39,581
98.48,497
98.57,479
98.66,354
98.75,284
98.84,161
98.93,158
99.02,129
99.11,137
99.2,125
99.29,111
99.38,117
99.47,122
99.56,105
99.65,123
99.74,115
99.83,116
99.92,107
100.01,110
100.1,106
100.19,112
100.28,106
100.37,114
100.46,113
100.55,99
100.64,119
100.73,109
100.82,110
100.91,99
101,103
101.09,115
101.18,115
101.27,106
101.36,107
101.45,116
101.54,113
101.63,106
101.72,121
101.81,102
101.9,113
101.99,115
102.08,98
102.17,118
102.26,111
102.35,126
102.44,126
102.53,128
102.62,115
102.71,114
102.8,112
102.89,106
102.98,130
103.07,121
103.16,103
103.25,122
103.34,110
103.43,116
103.52,127
103.61,160
103.7,156
103.79,157
103.88,169
103.97,204
104.06,172
104.15,191
104.24,180
104.33,169
104.42,153
104.51,143
104.6,131
104.69,142
104.78,130
104.87,125
104.96,133
105.05,154
105.14,185
105.23,143
105.32,139
105.41,137
105.5,140
105.59,130
105.68,116
105.77,123
105.86,112
105.95,107
106.04,127
106.13,119
106.22,118
106.31,117
106.4,126
106.49,120
106.58,119
106.67,118
106.76,114
106.85,107
106.94,109
107.03,111
107.12,113
107.21,123
107.3,117
107.39,112
107.48,116
107.57,116
107.66,127
107.75,116
107.84,112
107.93,116
108.02,114
108.11,122
108.2,113
108.29,121
108.38,119
108.47,122
108.56,131
108.65,139
108.74,135
108.83,150
108.92,144
109.01,133
109.1,159
109.19,139
109.28,142
109.37,139
109.46,150
109.55,163
109.64,203
109.73,213
109.82,209
109.91,187
110,177
110.09,227
110.18,265
110.27,212
110.36,160
110.45,181
110.54,188
110.63,181
110.72,151
110.81,146
110.9,124
110.99,148
111.08,138
111.17,135
111.26,126
111.35,125
111.44,127
111.53,131
111.62,136
111.71,123
111.8,120
111.89,149
111.98,164
112.07,200
112.16,178
112.25,162
112.34,159
112.43,153
112.52,179
112.61,142
112.7,143
112.79,138
112.88,134
112.97,130
113.06,138
113.15,156
113.24,168
113.33,200
113.42,228
113.51,289
113.6,294
113.69,329
113.78,369
113.87,407
113.96,395
114.05,337
114.14,313
114.23,299
114.32,281
114.41,294
114.5,282
114.59,290
114.68,256
114.77,243
114.86,258
114.95,276
114.98,115