File: data/xrd_icdd_PDF/00-054-0249 (PD3).csv
3,759
3.06,770
3.12,771
3.18,739
3.24,714
3.3,635
3.36,696
3.42,728
3.48,647
3.54,708
3.6,688
3.66,670
3.72,635
3.78,668
3.84,658
3.9,648
3.96,626
4.02,634
4.08,669
4.14,550
4.2,612
4.26,598
4.32,618
4.38,601
4.44,665
4.5,637
4.56,585
4.62,653
4.68,638
4.74,592
4.8,604
4.86,602
4.92,578
4.98,570
5.04,548
5.1,587
5.16,571
5.22,624
5.28,595
5.34,617
5.4,572
5.46,513
5.52,576
5.58,599
5.64,593
5.7,609
5.76,610
5.82,601
5.88,623
5.94,649
6,650
6.06,666
6.12,671
6.18,647
6.24,688
6.3,706
6.36,705
6.42,690
6.48,712
6.54,728
6.6,720
6.66,686
6.72,674
6.78,677
6.84,679
6.9,670
6.96,679
7.02,632
7.08,663
7.14,645
7.2,673
7.26,669
7.32,699
7.38,725
7.44,694
7.5,723
7.56,691
7.62,760
7.68,734
7.74,737
7.8,780
7.86,752
7.92,781
7.98,765
8.04,733
8.1,818
8.16,711
8.22,755
8.28,771
8.34,785
8.4,838
8.46,740
8.52,789
8.58,763
8.64,848
8.7,779
8.76,759
8.82,801
8.88,797
8.94,780
9,809
9.06,857
9.12,842
9.18,889
9.24,893
9.3,847
9.36,932
9.42,903
9.48,945
9.54,906
9.6,909
9.66,947
9.72,975
9.78,1049
9.84,944
9.9,1011
9.96,1035
10.02,1036
10.08,1011
10.14,1026
10.2,1035
10.26,1041
10.32,1067
10.38,1063
10.44,1135
10.5,1059
10.56,1080
10.62,1179
10.68,1138
10.74,1148
10.8,1144
10.86,1127
10.92,1201
10.98,1210
11.04,1226
11.1,1174
11.16,1168
11.22,1136
11.28,1263
11.34,1163
11.4,1175
11.46,1166
11.52,1194
11.58,1258
11.64,1166
11.7,1280
11.76,1298
11.82,1202
11.88,1222
11.94,1172
12,1281
12.06,1288
12.12,1281
12.18,1239
12.24,1286
12.3,1210
12.36,1233
12.42,1298
12.48,1280
12.54,1317
12.6,1312
12.66,1282
12.72,1339
12.78,1276
12.84,1313
12.9,1336
12.96,1329
13.02,1291
13.08,1325
13.14,1286
13.2,1326
13.26,1378
13.32,1472
13.38,1359
13.44,1411
13.5,1414
13.56,1471
13.62,1409
13.68,1647
13.74,1733
13.8,2024
13.86,2509
13.92,3657
13.98,5321
14.04,5634
14.1,3217
14.16,1773
14.22,1667
14.28,1763
14.34,1955
14.4,2438
14.46,3184
14.52,4754
14.58,8115
14.64,11867
14.7,10637
14.76,3955
14.82,1851
14.88,1756
14.94,1554
15,1445
15.06,1467
15.12,1458
15.18,1477
15.24,1407
15.3,1469
15.36,1387
15.42,1547
15.48,1441
15.54,1496
15.6,1585
15.66,1464
15.72,1464
15.78,1489
15.84,1439
15.9,1463
15.96,1457
16.02,1417
16.08,1493
16.14,1493
16.2,1410
16.26,1466
16.32,1437
16.38,1480
16.44,1534
16.5,1494
16.56,1503
16.62,1540
16.68,1536
16.74,1486
16.8,1517
16.86,1528
16.92,1587
16.98,1534
17.04,1867
17.1,1973
17.16,2650
17.22,4008
17.28,5705
17.34,4425
17.4,2113
17.46,1624
17.52,1564
17.58,1554
17.64,1503
17.7,1426
17.76,1479
17.82,1479
17.88,1493
17.94,1516
18,1490
18.06,1458
18.12,1442
18.18,1511
18.24,1442
18.3,1440
18.36,1453
18.42,1505
18.48,1444
18.54,1426
18.6,1507
18.66,1514
18.72,1502
18.78,1474
18.84,1458
18.9,1456
18.96,1470
19.02,1449
19.08,1481
19.14,1400
19.2,1394
19.26,1453
19.32,1494
19.38,1435
19.44,1483
19.5,1463
19.56,1367
19.62,1445
19.68,1424
19.74,1459
19.8,1420
19.86,1417
19.92,1492
19.98,1479
20.04,1443
20.1,1445
20.16,1437
20.22,1432
20.28,1462
20.34,1473
20.4,1442
20.46,1425
20.52,1429
20.58,1461
20.64,1492
20.7,1357
20.76,1458
20.82,1447
20.88,1457
20.94,1441
21,1454
21.06,1436
21.12,1447
21.18,1425
21.24,1450
21.3,1447
21.36,1411
21.42,1509
21.48,1454
21.54,1451
21.6,1400
21.66,1504
21.72,1448
21.78,1443
21.84,1433
21.9,1465
21.96,1486
22.02,1625
22.08,1859
22.14,2413
22.2,2097
22.26,1676
22.32,1537
22.38,1457
22.44,1447
22.5,1425
22.56,1441
22.62,1470
22.68,1401
22.74,1452
22.8,1444
22.86,1493
22.92,1485
22.98,1446
23.04,1464
23.1,1489
23.16,1442
23.22,1516
23.28,1549
23.34,1616
23.4,1674
23.46,1487
23.52,1538
23.58,1715
23.64,2002
23.7,2928
23.76,4552
23.82,4065
23.88,2322
23.94,1622
24,1551
24.06,1616
24.12,1653
24.18,1666
24.24,1612
24.3,1548
24.36,1521
24.42,1515
24.48,1465
24.54,1479
24.6,1434
24.66,1473
24.72,1468
24.78,1473
24.84,1445
24.9,1469
24.96,1447
25.02,1463
25.08,1487
25.14,1442
25.2,1397
25.26,1541
25.32,1461
25.38,1525
25.44,1674
25.5,1650
25.56,1572
25.62,1626
25.68,1629
25.74,1728
25.8,2105
25.86,3282
25.92,4486
25.98,2999
26.04,1809
26.1,1605
26.16,1487
26.22,1547
26.28,1466
26.34,1526
26.4,1508
26.46,1514
26.52,1590
26.58,1664
26.64,1695
26.7,1576
26.76,1573
26.82,1556
26.88,1570
26.94,1701
27,1684
27.06,1573
27.12,1599
27.18,1656
27.24,1845
27.3,2410
27.36,3912
27.42,3385
27.48,2342
27.54,1746
27.6,1764
27.66,1691
27.72,1793
27.78,1834
27.84,1922
27.9,2135
27.96,2438
28.02,3137
28.08,5080
28.14,10644
28.2,24005
28.26,25051
28.32,20891
28.38,23163
28.44,17704
28.5,8504
28.56,3476
28.62,3395
28.68,3874
28.74,3151
28.8,2336
28.86,1950
28.92,1929
28.98,1909
29.04,1924
29.1,1984
29.16,2069
29.22,2229
29.28,2643
29.34,3562
29.4,6119
29.46,14478
29.52,32591
29.58,26011
29.64,13731
29.7,4435
29.76,3001
29.82,2295
29.88,1918
29.94,1887
30,1769
30.06,1789
30.12,1695
30.18,1669
30.24,1740
30.3,1660
30.36,1700
30.42,1715
30.48,1711
30.54,1746
30.6,1638
30.66,1705
30.72,1654
30.78,1683
30.84,1677
30.9,1676
30.96,1691
31.02,1752
31.08,1891
31.14,1864
31.2,2040
31.26,2350
31.32,3155
31.38,5859
31.44,13276
31.5,13090
31.56,8495
31.62,3368
31.68,2287
31.74,1996
31.8,1824
31.86,1768
31.92,1641
31.98,1609
32.04,1648
32.1,1570
32.16,1690
32.22,1586
32.28,1567
32.34,1530
32.4,1642
32.46,1550
32.52,1623
32.58,1602
32.64,1614
32.7,1603
32.76,1588
32.82,1546
32.88,1596
32.94,1587
33,1611
33.06,1605
33.12,1603
33.18,1555
33.24,1597
33.3,1567
33.36,1545
33.42,1546
33.48,1626
33.54,1650
33.6,1668
33.66,1675
33.72,1821
33.78,2156
33.84,3618
33.9,6498
33.96,4832
34.02,3588
34.08,2051
34.14,1717
34.2,1709
34.26,1764
34.32,1728
34.38,1771
34.44,1911
34.5,2276
34.56,3742
34.62,7862
34.68,5369
34.74,4489
34.8,2449
34.86,2805
34.92,5154
34.98,4796
35.04,4044
35.1,2226
35.16,1899
35.22,1618
35.28,1653
35.34,1537
35.4,1502
35.46,1552
35.52,1519
35.58,1595
35.64,1543
35.7,1582
35.76,1604
35.82,1509
35.88,1647
35.94,1933
36,2079
36.06,2927
36.12,3808
36.18,2771
36.24,2126
36.3,1758
36.36,1583
36.42,1569
36.48,1527
36.54,1585
36.6,1636
36.66,1706
36.72,2326
36.78,2758
36.84,2264
36.9,1959
36.96,1761
37.02,2102
37.08,2730
37.14,2179
37.2,1813
37.26,1635
37.32,1612
37.38,1602
37.44,1533
37.5,1541
37.56,1488
37.62,1474
37.68,1548
37.74,1640
37.8,2088
37.86,2860
37.92,2126
37.98,2021
38.04,1580
38.1,1587
38.16,1540
38.22,1791
38.28,2062
38.34,1883
38.4,1741
38.46,1542
38.52,1606
38.58,1522
38.64,1492
38.7,1533
38.76,1430
38.82,1537
38.88,1510
38.94,1592
39,1764
39.06,1678
39.12,1603
39.18,1510
39.24,1517
39.3,1574
39.36,1459
39.42,1545
39.48,1456
39.54,1444
39.6,1517
39.66,1559
39.72,1472
39.78,1409
39.84,1557
39.9,1445
39.96,1512
40.02,1509
40.08,1474
40.14,1513
40.2,1457
40.26,1481
40.32,1500
40.38,1532
40.44,1486
40.5,1610
40.56,1792
40.62,1888
40.68,1764
40.74,1661
40.8,1495
40.86,1502
40.92,1664
40.98,1651
41.04,1550
41.1,1545
41.16,1523
41.22,1496
41.28,1471
41.34,1444
41.4,1439
41.46,1472
41.52,1544
41.58,1541
41.64,1608
41.7,1845
41.76,2286
41.82,1790
41.88,1898
41.94,1631
42,1618
42.06,1811
42.12,2704
42.18,2284
42.24,2222
42.3,1868
42.36,1553
42.42,1644
42.48,1767
42.54,1782
42.6,1848
42.66,2169
42.72,2498
42.78,2284
42.84,3566
42.9,4276
42.96,2871
43.02,2718
43.08,1742
43.14,1706
43.2,1526
43.26,1561
43.32,1564
43.38,1573
43.44,1546
43.5,1607
43.56,1594
43.62,1634
43.68,1835
43.74,1864
43.8,2855
43.86,5800
43.92,3583
43.98,3825
44.04,2332
44.1,1826
44.16,1719
44.22,1645
44.28,1519
44.34,1564
44.4,1555
44.46,1529
44.52,1512
44.58,1535
44.64,1554
44.7,1568
44.76,1704
44.82,1924
44.88,2822
44.94,5197
45,4345
45.06,4044
45.12,3623
45.18,2962
45.24,2164
45.3,2237
45.36,1647
45.42,1558
45.48,1529
45.54,1629
45.6,1575
45.66,1584
45.72,1733
45.78,1731
45.84,1636
45.9,1652
45.96,1566
46.02,1588
46.08,1519
46.14,1612
46.2,1550
46.26,1417
46.32,1522
46.38,1530
46.44,1534
46.5,1593
46.56,1550
46.62,1661
46.68,1619
46.74,1684
46.8,2134
46.86,1948
46.92,1853
46.98,1726
47.04,1593
47.1,1668
47.16,1567
47.22,1601
47.28,1644
47.34,1642
47.4,1681
47.46,1870
47.52,1903
47.58,2197
47.64,3377
47.7,8410
47.76,6401
47.82,5315
47.88,4299
47.94,2274
48,2033
48.06,1915
48.12,1841
48.18,2113
48.24,3247
48.3,5392
48.36,3091
48.42,3853
48.48,2519
48.54,2775
48.6,5947
48.66,4947
48.72,4095
48.78,3664
48.84,2264
48.9,1847
48.96,1694
49.02,1662
49.08,1782
49.14,1686
49.2,1736
49.26,1869
49.32,2328
49.38,2474
49.44,4002
49.5,4188
49.56,3031
49.62,3189
49.68,2113
49.74,1889
49.8,1823
49.86,1911
49.92,2222
49.98,3557
50.04,2725
50.1,2793
50.16,2381
50.22,1932
50.28,1761
50.34,1695
50.4,1665
50.46,1763
50.52,1713
50.58,1786
50.64,1833
50.7,1901
50.76,2234
50.82,3318
50.88,7235
50.94,4521
51,5008
51.06,3849
51.12,2499
51.18,2129
51.24,1862
51.3,1861
51.36,2071
51.42,1945
51.48,1970
51.54,2037
51.6,2526
51.66,5149
51.72,6167
51.78,3427
51.84,5096
51.9,3241
51.96,2411
52.02,2173
52.08,1970
52.14,1866
52.2,1877
52.26,1923
52.32,2103
52.38,3210
52.44,5082
52.5,3480
52.56,3377
52.62,3031
52.68,2052
52.74,1830
52.8,1787
52.86,1715
52.92,1814
52.98,1902
53.04,1905
53.1,2096
53.16,2866
53.22,5895
53.28,5309
53.34,3937
53.4,4480
53.46,2728
53.52,2674
53.58,2321
53.64,2106
53.7,2078
53.76,1726
53.82,1640
53.88,1609
53.94,1601
54,1609
54.06,1617
54.12,1590
54.18,1656
54.24,1592
54.3,1555
54.36,1635
54.42,1570
54.48,1585
54.54,1673
54.6,1620
54.66,1703
54.72,1576
54.78,1615
54.84,1623
54.9,1682
54.96,1636
55.02,1714
55.08,1781
55.14,1850
55.2,1890
55.26,1853
55.32,2099
55.38,2149
55.44,2374
55.5,3743
55.56,9460
55.62,6730
55.68,5140
55.74,5913
55.8,3386
55.86,2199
55.92,1892
55.98,1935
56.04,1857
56.1,1921
56.16,1838
56.22,1819
56.28,1954
56.34,2125
56.4,3246
56.46,5205
56.52,2917
56.58,3484
56.64,2913
56.7,1994
56.76,1799
56.82,1711
56.88,1732
56.94,1637
57,1623
57.06,1662
57.12,1602
57.18,1648
57.24,1661
57.3,1630
57.36,1690
57.42,1823
57.48,2042
57.54,1807
57.6,1857
57.66,1792
57.72,1781
57.78,1824
57.84,1986
57.9,2226
57.96,3789
58.02,6670
58.08,4666
58.14,5749
58.2,4043
58.26,3698
58.32,3303
58.38,2199
58.44,2136
58.5,2375
58.56,2670
58.62,3549
58.68,2945
58.74,3085
58.8,2549
58.86,2326
58.92,1982
58.98,1749
59.04,1701
59.1,1662
59.16,1744
59.22,1795
59.28,2231
59.34,3619
59.4,2500
59.46,2271
59.52,2709
59.58,1964
59.64,1699
59.7,1603
59.76,1656
59.82,1625
59.88,1655
59.94,1666
60,1557
60.06,1520
60.12,1683
60.18,1537
60.24,1563
60.3,1540
60.36,1540
60.42,1585
60.48,1636
60.54,1577
60.6,1658
60.66,1700
60.72,1643
60.78,1650
60.84,1681
60.9,1677
60.96,1842
61.02,1820
61.08,1731
61.14,1949
61.2,2624
61.26,4959
61.32,2475
61.38,2422
61.44,3336
61.5,2057
61.56,1775
61.62,1799
61.68,1737
61.74,2068
61.8,3483
61.86,2566
61.92,2152
61.98,2659
62.04,2179
62.1,1737
62.16,1710
62.22,1755
62.28,1671
62.34,1730
62.4,1784
62.46,1663
62.52,1592
62.58,1837
62.64,2119
62.7,1936
62.76,1693
62.82,1912
62.88,1855
62.94,1775
63,1768
63.06,1850
63.12,2026
63.18,2782
63.24,4497
63.3,5506
63.36,3319
63.42,4368
63.48,3637
63.54,2442
63.6,2335
63.66,1940
63.72,1717
63.78,1776
63.84,1840
63.9,1884
63.96,3014
64.02,4379
64.08,2638
64.14,2737
64.2,3125
64.26,2107
64.32,1894
64.38,1781
64.44,1902
64.5,2615
64.56,2741
64.62,2014
64.68,2350
64.74,2279
64.8,1890
64.86,1867
64.92,1812
64.98,1741
65.04,1821
65.1,1779
65.16,1730
65.22,1815
65.28,2191
65.34,2736
65.4,2361
65.46,3229
65.52,3999
65.58,2865
65.64,4465
65.7,3158
65.76,2417
65.82,2818
65.88,2127
65.94,1714
66,1680
66.06,1661
66.12,1525
66.18,1563
66.24,1601
66.3,1640
66.36,1601
66.42,1707
66.48,1661
66.54,1723
66.6,1546
66.66,1566
66.72,1678
66.78,1621
66.84,1589
66.9,1567
66.96,1736
67.02,1671
67.08,1666
67.14,1720
67.2,1656
67.26,1678
67.32,1709
67.38,2073
67.44,1997
67.5,2339
67.56,2250
67.62,2056
67.68,1978
67.74,2162
67.8,1816
67.86,1757
67.92,1726
67.98,1705
68.04,2033
68.1,3315
68.16,2597
68.22,1995
68.28,2322
68.34,2513
68.4,1940
68.46,2097
68.52,1849
68.58,1737
68.64,1781
68.7,1691
68.76,1678
68.82,1937
68.88,1977
68.94,2408
69,1866
69.06,2000
69.12,2245
69.18,1796
69.24,1840
69.3,1851
69.36,1663
69.42,1857
69.48,2273
69.54,2269
69.6,1908
69.66,2040
69.72,2021
69.78,1764
69.84,1682
69.9,1696
69.96,1563
70.02,1661
70.08,1631
70.14,1755
70.2,1768
70.26,1885
70.32,2035
70.38,1680
70.44,1681
70.5,1807
70.56,1644
70.62,1635
70.68,1684
70.74,1575
70.8,1609
70.86,1588
70.92,1616
70.98,1798
71.04,2106
71.1,1937
71.16,1664
71.22,1882
71.28,1845
71.34,1693
71.4,1613
71.46,1549
71.52,1552
71.58,1573
71.64,1626
71.7,1578
71.76,1518
71.82,1580
71.88,1573
71.94,1575
72,1585
72.06,1514
72.12,1528
72.18,1628
72.24,1506
72.3,1578
72.36,1540
72.42,1607
72.48,1499
72.54,1576
72.6,1605
72.66,1556
72.72,1534
72.78,1561
72.84,1567
72.9,1518
72.96,1557
73.02,1539
73.08,1625
73.14,1602
73.2,1595
73.26,1774
73.32,1868
73.38,1687
73.44,1600
73.5,1687
73.56,1817
73.62,1709
73.68,1756
73.74,1864
73.8,1995
73.86,1783
73.92,2011
73.98,3137
74.04,2758
74.1,1974
74.16,2026
74.22,2397
74.28,1923
74.34,1721
74.4,1761
74.46,1803
74.52,1848
74.58,1675
74.64,1728
74.7,1769
74.76,1708
74.82,1675
74.88,1599
74.94,1624
75,1670
75.06,1946
75.12,1780
75.18,1726
75.24,1809
75.3,1712
75.36,1769
75.42,1685
75.48,1702
75.54,1647
75.6,1901
75.66,2004
75.72,1979
75.78,1741
75.84,1928
75.9,2064
75.96,2037
76.02,1962
76.08,1857
76.14,1915
76.2,2713
76.26,2795
76.32,2019
76.38,1956
76.44,2440
76.5,2640
76.56,3736
76.62,2455
76.68,1984
76.74,2285
76.8,2743
76.86,2091
76.92,2005
76.98,2558
77.04,2010
77.1,1915
77.16,2019
77.22,2148
77.28,1895
77.34,1751
77.4,1763
77.46,1758
77.52,1948
77.58,2338
77.64,1958
77.7,1843
77.76,1880
77.82,2079
77.88,1830
77.94,1845
78,1838
78.06,1925
78.12,2576
78.18,2984
78.24,2332
78.3,3170
78.36,3601
78.42,2639
78.48,2401
78.54,3558
78.6,2993
78.66,2208
78.72,2245
78.78,2772
78.84,2434
78.9,2602
78.96,2708
79.02,3463
79.08,2430
79.14,2337
79.2,2468
79.26,2562
79.32,2067
79.38,1978
79.44,2028
79.5,2216
79.56,2762
79.62,3534
79.68,3573
79.74,2373
79.8,2434
79.86,2778
79.92,2686
79.98,2415
80.04,2829
80.1,2110
80.16,1842
80.22,1991
80.28,2296
80.34,1968
80.4,1880
80.46,1738
80.52,1724
80.58,1748
80.64,1692
80.7,1666
80.76,1754
80.82,1790
80.88,1895
80.94,2704
81,2476
81.06,1904
81.12,1912
81.18,2238
81.24,2181
81.3,1728
81.36,1731
81.42,1705
81.48,1751
81.54,1810
81.6,1917
81.66,2655
81.72,2282
81.78,1858
81.84,1929
81.9,2232
81.96,2081
82.02,1863
82.08,1913
82.14,2000
82.2,3170
82.26,3234
82.32,2283
82.38,2910
82.44,2872
82.5,2875
82.56,2035
82.62,2226
82.68,2084
82.74,1860
82.8,1671
82.86,1640
82.92,1710
82.98,1652
83.04,1739
83.1,1749
83.16,1649
83.22,1667
83.28,1719
83.34,1746
83.4,1700
83.46,1711
83.52,1920
83.58,1780
83.64,1782
83.7,1978
83.76,1992
83.82,1969
83.88,2017
83.94,1784
84,1853
84.06,1880
84.12,2061
84.18,2194
84.24,2287
84.3,1929
84.36,1939
84.42,1989
84.48,2141
84.54,1792
84.6,1748
84.66,1752
84.72,1735
84.78,1684
84.84,1743
84.9,1748
84.96,1910
85.02,2338
85.08,2304
85.14,2905
85.2,2396
85.26,2234
85.32,2300
85.38,2611
85.44,3400
85.5,2351
85.56,1990
85.62,1927
85.68,2193
85.74,2098
85.8,1834
85.86,1667
85.92,1626
85.98,1620
86.04,1666
86.1,1597
86.16,1724
86.22,1741
86.28,1633
86.34,1638
86.4,1621
86.46,1791
86.52,1770
86.58,1634
86.64,1661
86.7,1717
86.76,1715
86.82,1640
86.88,1560
86.94,1618
87,1730
87.06,1765
87.12,1674
87.18,1684
87.24,1674
87.3,1638
87.36,1670
87.42,1674
87.48,1755
87.54,2039
87.6,2310
87.66,1812
87.72,1780
87.78,1832
87.84,2125
87.9,1942
87.96,1738
88.02,1737
88.08,1752
88.14,1781
88.2,1692
88.26,1740
88.32,1682
88.38,1773
88.44,1682
88.5,1692
88.56,1734
88.62,1748
88.68,2211
88.74,2358
88.8,1947
88.86,1929
88.92,2704
88.98,2861
89.04,2171
89.1,1959
89.16,1990
89.22,2320
89.28,2081
89.34,1950
89.4,1808
89.46,2136
89.52,1984
89.58,2099
89.64,1908
89.7,1776
89.76,1933
89.82,1761
89.88,1850
89.94,1648
90,1678