File: data/xrd_icdd_PDF/00-061-0054 (PD3).csv
12,1792
12.08,1895
12.16,1893
12.24,1840
12.32,1850
12.4,1890
12.48,1843
12.56,1923
12.64,1878
12.72,1861
12.8,1897
12.88,1876
12.96,1968
13.04,1903
13.12,1890
13.2,1913
13.28,1979
13.36,1904
13.44,1974
13.52,1917
13.6,2028
13.68,2024
13.76,2172
13.84,2344
13.92,2790
14,4120
14.08,4684
14.16,2561
14.24,2059
14.32,2030
14.4,2029
14.48,1973
14.56,1947
14.64,1941
14.72,2001
14.8,2076
14.88,2007
14.96,2023
15.04,1957
15.12,2029
15.2,1949
15.28,2005
15.36,1965
15.44,1954
15.52,2049
15.6,2025
15.68,2038
15.76,1993
15.84,2046
15.92,2105
16,2009
16.08,2053
16.16,2072
16.24,2055
16.32,2110
16.4,1983
16.48,2031
16.56,2112
16.64,2149
16.72,2110
16.8,2157
16.88,2124
16.96,2123
17.04,2125
17.12,2134
17.2,2077
17.28,2094
17.36,2110
17.44,2041
17.52,2039
17.6,2146
17.68,2100
17.76,2096
17.84,2097
17.92,2165
18,2090
18.08,2014
18.16,2081
18.24,2154
18.32,2082
18.4,2090
18.48,2092
18.56,2118
18.64,2110
18.72,2113
18.8,2024
18.88,2102
18.96,2102
19.04,2139
19.12,2059
19.2,2112
19.28,2079
19.36,2128
19.44,2023
19.52,2046
19.6,2117
19.68,2124
19.76,2138
19.84,2281
19.92,2549
20,2263
20.08,2173
20.16,2177
20.24,2181
20.32,2139
20.4,2078
20.48,2100
20.56,2073
20.64,2071
20.72,2125
20.8,2149
20.88,2149
20.96,2052
21.04,2112
21.12,2052
21.2,2038
21.28,2125
21.36,2162
21.44,2109
21.52,2071
21.6,2194
21.68,2041
21.76,2126
21.84,2008
21.92,2068
22,2070
22.08,2088
22.16,2092
22.24,2068
22.32,2084
22.4,2024
22.48,2061
22.56,2034
22.64,2046
22.72,2081
22.8,2128
22.88,2072
22.96,2158
23.04,2054
23.12,2003
23.2,1989
23.28,2118
23.36,2068
23.44,2044
23.52,2083
23.6,2095
23.68,2115
23.76,2078
23.84,2083
23.92,2077
24,2149
24.08,2131
24.16,2120
24.24,2175
24.32,2417
24.4,3085
24.48,3354
24.56,2505
24.64,2085
24.72,2114
24.8,2124
24.88,2072
24.96,2131
25.04,2116
25.12,2086
25.2,2086
25.28,2103
25.36,2094
25.44,2064
25.52,2067
25.6,2090
25.68,1989
25.76,1975
25.84,2084
25.92,2026
26,2025
26.08,2098
26.16,2010
26.24,2046
26.32,1965
26.4,2032
26.48,2092
26.56,2023
26.64,2004
26.72,2058
26.8,2055
26.88,1988
26.96,2064
27.04,2029
27.12,2036
27.2,2134
27.28,2055
27.36,2164
27.44,1881
27.52,2087
27.6,2034
27.68,2089
27.76,2044
27.84,2065
27.92,2122
28,2077
28.08,2079
28.16,2075
28.24,2080
28.32,2051
28.4,2102
28.48,2086
28.56,2030
28.64,2010
28.72,2098
28.8,2020
28.88,2052
28.96,2078
29.04,2041
29.12,2065
29.2,2065
29.28,2044
29.36,2024
29.44,2045
29.52,2137
29.6,2004
29.68,2094
29.76,2034
29.84,2078
29.92,2082
30,2086
30.08,2039
30.16,2063
30.24,2066
30.32,2129
30.4,2165
30.48,2126
30.56,2084
30.64,2097
30.72,2144
30.8,2195
30.88,2071
30.96,2099
31.04,2159
31.12,2177
31.2,2196
31.28,2307
31.36,2356
31.44,2523
31.52,2807
31.6,4104
31.68,8416
31.76,9554
31.84,5608
31.92,2983
32,2505
32.08,2404
32.16,2303
32.24,2187
32.32,2210
32.4,2152
32.48,2217
32.56,2132
32.64,2105
32.72,2174
32.8,2090
32.88,2173
32.96,2142
33.04,2155
33.12,2136
33.2,2123
33.28,2206
33.36,2166
33.44,2154
33.52,2164
33.6,2136
33.68,2206
33.76,2198
33.84,2269
33.92,2324
34,2402
34.08,2292
34.16,2404
34.24,2302
34.32,2297
34.4,2339
34.48,2521
34.56,2702
34.64,3129
34.72,4536
34.8,10789
34.88,11586
34.96,6793
35.04,3410
35.12,2813
35.2,2555
35.28,2416
35.36,2315
35.44,2319
35.52,2289
35.6,2200
35.68,2209
35.76,2147
35.84,2176
35.92,2194
36,2080
36.08,2114
36.16,2131
36.24,2140
36.32,2040
36.4,2150
36.48,2228
36.56,2206
36.64,2165
36.72,2175
36.8,2220
36.88,2211
36.96,2236
37.04,2244
37.12,2289
37.2,2312
37.28,2292
37.36,2337
37.44,2501
37.52,2803
37.6,3715
37.68,7606
37.76,10040
37.84,7036
37.92,3577
38,2829
38.08,2585
38.16,2464
38.24,2353
38.32,2339
38.4,2244
38.48,2254
38.56,2120
38.64,2182
38.72,2295
38.8,2218
38.88,2145
38.96,2237
39.04,2203
39.12,2157
39.2,2217
39.28,2191
39.36,2233
39.44,2180
39.52,2222
39.6,2275
39.68,2195
39.76,2224
39.84,2232
39.92,2284
40,2341
40.08,2435
40.16,2607
40.24,2896
40.32,3789
40.4,7428
40.48,8768
40.56,6426
40.64,3593
40.72,2808
40.8,2594
40.88,2414
40.96,2265
41.04,2207
41.12,2272
41.2,2281
41.28,2266
41.36,2285
41.44,2316
41.52,2227
41.6,2128
41.68,2208
41.76,2228
41.84,2264
41.92,2247
42,2342
42.08,2245
42.16,2302
42.24,2396
42.32,2514
42.4,2587
42.48,2812
42.56,2954
42.64,3311
42.72,3761
42.8,4898
42.88,7313
42.96,20440
43.04,29015
43.12,20008
43.2,9574
43.28,4989
43.36,3855
43.44,3211
43.52,2996
43.6,2799
43.68,2661
43.76,2509
43.84,2472
43.92,2408
44,2403
44.08,2339
44.16,2351
44.24,2377
44.32,2320
44.4,2319
44.48,2346
44.56,2226
44.64,2264
44.72,2262
44.8,2342
44.88,2281
44.96,2350
45.04,2404
45.12,2474
45.2,2490
45.28,2721
45.36,3245
45.44,5771
45.52,5281
45.6,4496
45.68,3003
45.76,2569
45.84,2450
45.92,2391
46,2345
46.08,2404
46.16,2288
46.24,2311
46.32,2194
46.4,2192
46.48,2223
46.56,2257
46.64,2169
46.72,2196
46.8,2245
46.88,2175
46.96,2174
47.04,2232
47.12,2223
47.2,2179
47.28,2221
47.36,2148
47.44,2296
47.52,2235
47.6,2259
47.68,2210
47.76,2403
47.84,2459
47.92,2415
48,2227
48.08,2260
48.16,2173
48.24,2180
48.32,2105
48.4,2177
48.48,2206
48.56,2183
48.64,2247
48.72,2198
48.8,2062
48.88,2172
48.96,2104
49.04,2178
49.12,2159
49.2,2081
49.28,2082
49.36,2050
49.44,2095
49.52,2125
49.6,2189
49.68,2172
49.76,2136
49.84,2176
49.92,2224
50,2685
50.08,3255
50.16,2856
50.24,2782
50.32,2347
50.4,2272
50.48,2196
50.56,2179
50.64,2132
50.72,2114
50.8,2140
50.88,2170
50.96,2071
51.04,2110
51.12,2148
51.2,2055
51.28,2126
51.36,2066
51.44,2081
51.52,2095
51.6,2205
51.68,2073
51.76,2108
51.84,2140
51.92,2125
52,2159
52.08,2144
52.16,2186
52.24,2737
52.32,2790
52.4,2550
52.48,2331
52.56,2112
52.64,2149
52.72,2102
52.8,2099
52.88,2109
52.96,2090
53.04,2084
53.12,2149
53.2,2092
53.28,2118
53.36,2082
53.44,2064
53.52,2024
53.6,2133
53.68,2035
53.76,2072
53.84,2069
53.92,2055
54,2098
54.08,2105
54.16,2141
54.24,2076
54.32,2189
54.4,2098
54.48,2025
54.56,2063
54.64,2114
54.72,2161
54.8,2060
54.88,2097
54.96,2048
55.04,2063
55.12,2096
55.2,2133
55.28,2128
55.36,2122
55.44,2059
55.52,2059
55.6,2037
55.68,2113
55.76,2008
55.84,2098
55.92,2163
56,2122
56.08,2090
56.16,2198
56.24,2136
56.32,2286
56.4,2774
56.48,3812
56.56,3256
56.64,3090
56.72,2558
56.8,2222
56.88,2206
56.96,2218
57.04,2149
57.12,2192
57.2,2098
57.28,2056
57.36,2121
57.44,2062
57.52,2166
57.6,2087
57.68,2054
57.76,2125
57.84,2133
57.92,2098
58,2173
58.08,2119
58.16,2106
58.24,2263
58.32,2243
58.4,2483
58.48,3399
58.56,3567
58.64,3066
58.72,2892
58.8,2354
58.88,2263
58.96,2172
59.04,2202
59.12,2150
59.2,2163
59.28,2184
59.36,2121
59.44,2084
59.52,2119
59.6,2041
59.68,2077
59.76,2089
59.84,2059
59.92,2081
60,2141
60.08,2192
60.16,2230
60.24,2242
60.32,2312
60.4,2550
60.48,3713
60.56,3430
60.64,3081
60.72,2974
60.8,2355
60.88,2236
60.96,2195
61.04,2164
61.12,2101
61.2,2121
61.28,2134
61.36,2149
61.44,2176
61.52,2162
61.6,2130
61.68,2183
61.76,2174
61.84,2166
61.92,2138
62,2140
62.08,2151
62.16,2180
62.24,2294
62.32,2368
62.4,2989
62.48,3535
62.56,2870
62.64,2954
62.72,2498
62.8,2303
62.88,2224
62.96,2215
63.04,2166
63.12,2204
63.2,2096
63.28,2179
63.36,2100
63.44,2174
63.52,2113
63.6,2160
63.68,2197
63.76,2155
63.84,2221
63.92,2290
64,2324
64.08,2300
64.16,2441
64.24,2820
64.32,4230
64.4,4957
64.48,3599
64.56,3812
64.64,2826
64.72,2394
64.8,2298
64.88,2197
64.96,2221
65.04,2253
65.12,2089
65.2,2158
65.28,2161
65.36,2180
65.44,2104
65.52,2128
65.6,2138
65.68,2155
65.76,2149
65.84,2206
65.92,2259
66,2230
66.08,2167
66.16,2424
66.24,2882
66.32,2622
66.4,2521
66.48,2493
66.56,2127
66.64,2094
66.72,2265
66.8,2112
66.88,2147
66.96,2061
67.04,2171
67.12,2198
67.2,2197
67.28,2148
67.36,2135
67.44,2099
67.52,2077
67.6,2133
67.68,2102
67.76,2173
67.84,2129
67.92,2155
68,2113
68.08,2141
68.16,2165
68.24,2130
68.32,2181
68.4,2259
68.48,2189
68.56,2097
68.64,2179
68.72,2186
68.8,2138
68.88,2142
68.96,2184
69.04,2173
69.12,2182
69.2,2210
69.28,2139
69.36,2188
69.44,2177
69.52,2255
69.6,2388
69.68,2423
69.76,2729
69.84,3403
69.92,5663
70,4657
70.08,3912
70.16,4144
70.24,2929
70.32,2488
70.4,2347
70.48,2209
70.56,2251
70.64,2093
70.72,2169
70.8,2106
70.88,2143
70.96,2131
71.04,2120
71.12,2115
71.2,2125
71.28,2165
71.36,2096
71.44,2056
71.52,2092
71.6,2157
71.68,2190
71.76,2166
71.84,2141
71.92,2148
72,2167
72.08,2159
72.16,2209
72.24,2122
72.32,2129
72.4,2107
72.48,2137
72.56,2058
72.64,2130
72.72,2164
72.8,2101
72.88,2168
72.96,2008
73.04,2094
73.12,2093
73.2,2167
73.28,2191
73.36,2325
73.44,2435
73.52,2957
73.6,2912
73.68,2577
73.76,2889
73.84,2342
73.92,2208
74,2173
74.08,2133
74.16,2118
74.24,2055
74.32,2134
74.4,2007
74.48,2113
74.56,2149
74.64,2089
74.72,2166
74.8,2192
74.88,2180
74.96,2117
75.04,2168
75.12,2255
75.2,2277
75.28,2553
75.36,2655
75.44,2415
75.52,2353
75.6,2285
75.68,2168
75.76,2118
75.84,2137
75.92,2092
76,2162
76.08,2128
76.16,2059
76.24,2135
76.32,2066
76.4,2100
76.48,2020
76.56,2209
76.64,2076
76.72,2115
76.8,2081
76.88,2126
76.96,2187
77.04,2061
77.12,2150
77.2,2025
77.28,2087
77.36,2112
77.44,2152
77.52,2062
77.6,2086
77.68,2198
77.76,2162
77.84,2140
77.92,2132
78,2157
78.08,2173
78.16,2128
78.24,2180
78.32,2250
78.4,2294
78.48,2380
78.56,2537
78.64,2652
78.72,3377
78.8,5545
78.88,5172
78.96,3707
79.04,4279
79.12,3753
79.2,2709
79.28,2457
79.36,2336
79.44,2224
79.52,2183
79.6,2174
79.68,2233
79.76,2125
79.84,2103
79.92,2161
80,2152
80.08,2101
80.16,2151
80.24,2095
80.32,2157
80.4,2095
80.48,2074
80.56,2113
80.64,2115
80.72,2123
80.8,2204
80.88,2155
80.96,2129
81.04,2093
81.12,2062
81.2,2091
81.28,2147
81.36,2157
81.44,2045
81.52,2065
81.6,1991
81.68,2133
81.76,2011
81.84,2058
81.92,2262
82,2173
82.08,2192
82.16,2291
82.24,2570
82.32,2862
82.4,2495
82.48,2452
82.56,2557
82.64,2347
82.72,2162
82.8,2165
82.88,2167
82.96,2169
83.04,2113
83.12,2213
83.2,2069
83.28,2126
83.36,2092
83.44,2034
83.52,2096
83.6,2087
83.68,2092
83.76,2072
83.84,2083
83.92,2016
84,2061
84.08,2096
84.16,2088
84.24,2117
84.32,2059
84.4,2095
84.48,2083
84.56,2069
84.64,2055
84.72,2089
84.8,2070
84.88,2104
84.96,2004
85.04,2036
85.12,2114
85.2,2139
85.28,2042
85.36,2182
85.44,2064
85.52,2168
85.6,2338
85.68,2576
85.76,2950
85.84,2610
85.92,2369
86,2531
86.08,2311
86.16,2130
86.24,2161
86.32,2134
86.4,2137
86.48,2059
86.56,2091
86.64,2063
86.72,2144
86.8,2157
86.88,2029
86.96,2084
87.04,2018
87.12,2133
87.2,2118
87.28,2131
87.36,2205
87.44,2272
87.52,2261
87.6,2107
87.68,2172
87.76,2168
87.84,2142
87.92,2116
88,2056
88.08,2054
88.16,2085
88.24,2062
88.32,2120
88.4,2046
88.48,2056
88.56,2081
88.64,2135
88.72,2054
88.8,2130
88.88,2043
88.96,2219
89.04,2303
89.12,2643
89.2,2888
89.28,2452
89.36,2396
89.44,2564
89.52,2332
89.6,2162
89.68,2187
89.76,2091
89.84,2105
89.92,2143
90,2119
90.08,2120
90.16,2101
90.24,2071
90.32,2130
90.4,2107
90.48,2029
90.56,2132
90.64,2225
90.72,2241
90.8,2360
90.88,2738
90.96,2502
91.04,2314
91.12,2360
91.2,2387
91.28,2271
91.36,2157
91.44,2064
91.52,2134
91.6,2095
91.68,2111
91.76,2023
91.84,2079
91.92,2084
92,2150
92.08,2057
92.16,2147
92.24,2111
92.32,2048
92.4,2005
92.48,2035
92.56,2159
92.64,2062
92.72,2015
92.8,2026
92.88,2028
92.96,2041
93.04,2024
93.12,2023
93.2,2049
93.28,1967
93.36,2067
93.44,2136
93.52,2046
93.6,2156
93.68,2078
93.76,2136
93.84,2126
93.92,2148
94,2179
94.08,2239
94.16,2310
94.24,2719
94.32,3330
94.4,2794
94.48,2448
94.56,2621
94.64,2702
94.72,2400
94.8,2197
94.88,2140
94.96,2069
95.04,2156
95.12,2098
95.2,2009
95.28,2029
95.36,2072
95.44,2019
95.52,2086
95.6,2162
95.68,2081
95.76,2113
95.84,2104
95.92,2183
96,2396
96.08,2409
96.16,2246
96.24,2197
96.32,2272
96.4,2279
96.48,2085
96.56,2060
96.64,1982
96.72,2083
96.8,2054
96.88,2113
96.96,2045
97.04,2130
97.12,2181
97.2,2023
97.28,2072
97.36,2054
97.44,2094
97.52,2141
97.6,2140
97.68,2322
97.76,2449
97.84,2301
97.92,2172
98,2176
98.08,2273
98.16,2268
98.24,2064
98.32,2082
98.4,2065
98.48,2119
98.56,2070
98.64,2107
98.72,2063
98.8,2034
98.88,2062
98.96,2006
99.04,2057
99.12,2053
99.2,2073
99.28,2028
99.36,2100
99.44,1974
99.52,2023
99.6,2025
99.68,2021
99.76,2018
99.84,2065
99.92,2049
100,2037
100.08,2083
100.16,2061
100.24,1993
100.32,2055
100.4,2087
100.48,2096
100.56,2048
100.64,2064
100.72,1974
100.8,2063
100.88,2051
100.96,2064
101.04,2046
101.12,2164
101.2,2214
101.28,2202
101.36,2091
101.44,2134
101.52,2140
101.6,2222
101.68,2069
101.76,2100
101.84,2092
101.92,2021
102,1985
102.08,2052
102.16,2116
102.24,2076
102.32,2148
102.4,2061
102.48,2062
102.56,2150
102.64,2117
102.72,2126
102.8,2050
102.88,2124
102.96,2196
103.04,2138
103.12,2078
103.2,2072
103.28,2066
103.36,2112
103.44,2115
103.52,2101
103.6,2078
103.68,2049
103.76,2057
103.84,2100
103.92,2035
104,2111
104.08,2023
104.16,2059
104.24,2058
104.32,2189
104.4,2156
104.48,2061
104.56,2107
104.64,2254
104.72,2366
104.8,2247
104.88,2157
104.96,2165
105.04,2156
105.12,2273
105.2,2195
105.28,2102
105.36,2056
105.44,2069
105.52,2019
105.6,2068
105.68,2089
105.76,2104
105.84,2087
105.92,2156
106,2109
106.08,2136
106.16,2202
106.24,2227
106.32,2358
106.4,2510
106.48,3038
106.56,3100
106.64,2634
106.72,2461
106.8,2492
106.88,2660
106.96,2587
107.04,2405
107.12,2298
107.2,2130
107.28,2192
107.36,2144
107.44,2150
107.52,2139
107.6,2047
107.68,2118
107.76,2100
107.84,2097
107.92,2070
108,2145
108.08,2163
108.16,2162
108.24,2267
108.32,2269
108.4,2174
108.48,2140
108.56,2177
108.64,2144
108.72,2136
108.8,2118
108.88,2176
108.96,2109
109.04,2139
109.12,2129
109.2,2140
109.28,2112
109.36,2113
109.44,2088
109.52,2124
109.6,2072
109.68,2200
109.76,2239
109.84,2299
109.92,2322
110,2522
110.08,2974
110.16,3041
110.24,2621
110.32,2486
110.4,2469
110.48,2582
110.56,2553
110.64,2367
110.72,2235
110.8,2192
110.88,2177
110.96,2132
111.04,2179
111.12,2052
111.2,2093
111.28,2082
111.36,2113
111.44,2090
111.52,2111
111.6,2032
111.68,2080
111.76,2155
111.84,2106
111.92,2181
112,2107
112.08,2065
112.16,2075
112.24,2047
112.32,2057
112.38,2090