File: data/xrd_icdd_PDF/00-059-0268 (PD3).csv
5,1737
5.08,2182
5.16,2000
5.24,2040
5.32,2060
5.4,2000
5.48,1939
5.56,1858
5.64,1899
5.72,1798
5.8,1899
5.88,1818
5.96,1737
6.04,1717
6.12,1616
6.2,1717
6.28,1555
6.36,1535
6.44,1697
6.52,1616
6.6,1656
6.68,1475
6.76,1414
6.84,1677
6.92,1394
7,1555
7.08,1454
7.16,1394
7.24,1333
7.32,1232
7.4,1252
7.48,1434
7.56,1333
7.64,1252
7.72,1273
7.8,1293
7.88,1192
7.96,1192
8.04,1151
8.12,1293
8.2,1212
8.28,1151
8.36,1151
8.44,1212
8.52,1192
8.6,1171
8.68,1130
8.76,1131
8.84,1111
8.92,1150
9,1151
9.08,1111
9.16,1091
9.24,1050
9.32,1092
9.4,1050
9.48,1030
9.56,1050
9.64,1111
9.72,990
9.8,1010
9.88,990
9.96,1132
10.04,1091
10.12,970
10.2,1010
10.28,929
10.36,1091
10.44,1050
10.52,1192
10.6,1192
10.68,1374
10.76,1596
10.84,1899
10.92,1737
11,1151
11.08,990
11.16,1151
11.24,828
11.32,990
11.4,929
11.48,869
11.56,970
11.64,909
11.72,889
11.8,808
11.88,970
11.96,869
12.04,848
12.12,869
12.2,747
12.28,747
12.36,707
12.44,929
12.52,808
12.6,747
12.68,990
12.76,747
12.84,848
12.92,727
13,747
13.08,687
13.16,788
13.24,646
13.32,667
13.4,727
13.48,727
13.56,788
13.64,768
13.72,727
13.8,687
13.88,727
13.96,667
14.04,667
14.12,646
14.2,808
14.28,707
14.36,566
14.44,667
14.52,707
14.6,727
14.68,788
14.76,626
14.84,747
14.92,707
15,727
15.08,630
15.16,751
15.24,731
15.32,711
15.4,715
15.48,626
15.56,626
15.64,667
15.72,667
15.8,747
15.88,646
15.96,646
16.04,687
16.12,545
16.2,687
16.28,566
16.36,626
16.44,566
16.52,606
16.6,646
16.68,646
16.76,646
16.84,586
16.92,646
17,626
17.08,646
17.16,626
17.24,626
17.32,566
17.4,586
17.48,465
17.56,626
17.64,545
17.72,525
17.8,667
17.88,566
17.96,646
18.04,545
18.12,687
18.2,606
18.28,586
18.36,485
18.44,505
18.52,485
18.6,485
18.68,525
18.76,586
18.84,545
18.92,566
19,525
19.08,586
19.16,465
19.24,505
19.32,505
19.4,545
19.48,545
19.56,505
19.64,505
19.72,606
19.8,606
19.88,465
19.96,505
20.04,505
20.12,444
20.2,566
20.28,606
20.36,384
20.44,505
20.52,465
20.6,525
20.68,525
20.76,505
20.84,505
20.92,545
21,566
21.08,808
21.16,788
21.24,788
21.32,606
21.4,667
21.48,949
21.56,1091
21.64,1515
21.72,1959
21.8,2505
21.88,2767
21.96,1919
22.04,1172
22.12,707
22.2,566
22.28,424
22.36,626
22.44,485
22.52,444
22.6,404
22.68,404
22.76,444
22.84,444
22.92,505
23,566
23.08,566
23.16,586
23.24,545
23.32,545
23.4,465
23.48,545
23.56,545
23.64,566
23.72,496
23.8,543
23.88,428
23.96,496
24.04,563
24.12,419
24.2,542
24.28,549
24.36,444
24.44,485
24.52,505
24.6,545
24.68,525
24.76,505
24.84,525
24.92,505
25,444
25.08,485
25.16,525
25.24,465
25.32,566
25.4,430
25.48,479
25.56,527
25.64,475
25.72,422
25.8,432
25.88,525
25.96,606
26.04,586
26.12,606
26.2,768
26.28,828
26.36,687
26.44,525
26.52,566
26.6,525
26.68,566
26.76,485
26.84,465
26.92,465
27,424
27.08,505
27.16,465
27.24,606
27.32,557
27.4,528
27.48,521
27.56,505
27.64,505
27.72,491
27.8,549
27.88,525
27.96,485
28.04,566
28.12,545
28.2,485
28.28,606
28.36,667
28.44,667
28.52,687
28.6,949
28.68,1151
28.76,1697
28.84,2707
28.92,4404
29,6121
29.08,6302
29.16,3878
29.24,2040
29.32,1374
29.4,1071
29.48,869
29.56,808
29.64,687
29.72,808
29.8,667
29.88,691
29.96,683
30.04,723
30.12,709
30.2,768
30.28,707
30.36,707
30.44,787
30.52,723
30.6,870
30.68,1068
30.76,1157
30.84,1761
30.92,2809
31,4613
31.08,5466
31.16,4174
31.24,2541
31.32,1664
31.4,1220
31.48,995
31.56,860
31.64,773
31.72,752
31.8,786
31.88,770
31.96,618
32.04,756
32.12,713
32.2,694
32.28,655
32.36,619
32.44,643
32.52,646
32.6,722
32.68,836
32.76,916
32.84,1248
32.92,1750
33,2650
33.08,2994
33.16,2442
33.24,1579
33.32,1176
33.4,899
33.48,854
33.56,757
33.64,748
33.72,818
33.8,826
33.88,849
33.96,885
34.04,1014
34.12,1223
34.2,1778
34.28,2687
34.36,4464
34.44,5339
34.52,4265
34.6,2680
34.68,1712
34.76,1202
34.84,987
34.92,935
35,849
35.08,790
35.16,727
35.24,717
35.32,693
35.4,734
35.48,742
35.56,714
35.64,808
35.72,707
35.8,706
35.88,707
35.96,646
36.04,707
36.12,727
36.2,929
36.28,1151
36.36,1879
36.44,3228
36.52,5942
36.6,8091
36.68,8491
36.76,6048
36.84,3293
36.92,1454
37,949
37.08,909
37.16,727
37.24,828
37.32,869
37.4,802
37.48,695
37.56,717
37.64,646
37.72,699
37.8,667
37.88,666
37.96,667
38.04,643
38.12,645
38.2,628
38.28,713
38.36,718
38.44,562
38.52,629
38.6,596
38.68,600
38.76,648
38.84,697
38.92,622
39,610
39.08,626
39.16,586
39.24,605
39.32,626
39.4,667
39.48,788
39.56,667
39.64,609
39.72,620
39.8,610
39.88,660
39.96,672
40.04,643
40.12,606
40.2,707
40.28,465
40.36,566
40.44,525
40.52,606
40.6,646
40.68,727
40.76,687
40.84,727
40.92,586
41,889
41.08,828
41.16,1030
41.24,1576
41.32,2283
41.4,3050
41.48,3818
41.56,3656
41.64,2707
41.72,2060
41.8,1555
41.88,1010
41.96,848
42.04,848
42.12,747
42.2,687
42.28,667
42.36,767
42.44,727
42.52,715
42.6,715
42.68,763
42.76,757
42.84,768
42.92,802
43,842
43.08,865
43.16,886
43.24,842
43.32,677
43.4,687
43.48,730
43.56,725
43.64,785
43.72,765
43.8,765
43.88,745
43.96,686
44.04,828
44.12,1050
44.2,1273
44.28,1576
44.36,1879
44.44,2545
44.52,2485
44.6,2323
44.68,1515
44.76,1071
44.84,747
44.92,707
45,646
45.08,808
45.16,744
45.24,675
45.32,672
45.4,733
45.48,715
45.56,698
45.64,661
45.72,668
45.8,653
45.88,700
45.96,707
46.04,674
46.12,663
46.2,629
46.28,680
46.36,648
46.44,639
46.52,671
46.6,746
46.68,644
46.76,693
46.84,719
46.92,838
47,687
47.08,747
47.16,768
47.24,990
47.32,1353
47.4,1414
47.48,1252
47.56,1071
47.64,929
47.72,828
47.8,719
47.88,728
47.96,753
48.04,747
48.12,707
48.2,615
48.28,732
48.36,736
48.44,760
48.52,704
48.6,670
48.68,675
48.76,722
48.84,709
48.92,696
49,681
49.08,667
49.16,694
49.24,760
49.32,766
49.4,630
49.48,779
49.56,746
49.64,739
49.72,711
49.8,671
49.88,672
49.96,636
50.04,660
50.12,699
50.2,651
50.28,667
50.36,626
50.44,645
50.52,608
50.6,656
50.68,703
50.76,651
50.84,596
50.92,667
51,707
51.08,705
51.16,672
51.24,661
51.32,606
51.4,715
51.48,704
51.56,692
51.64,681
51.72,730
51.8,617
51.88,666
51.96,775
52.04,724
52.12,660
52.2,619
52.28,669
52.36,717
52.44,666
52.52,613
52.6,622
52.68,649
52.76,699
52.84,708
52.92,737
53,645
53.08,667
53.16,685
53.24,785
53.32,666
53.4,747
53.48,788
53.56,727
53.64,768
53.72,889
53.8,949
53.88,1515
53.96,2262
54.04,2606
54.12,2586
54.2,1737
54.28,1353
54.36,828
54.44,889
54.52,768
54.6,788
54.68,970
54.76,1131
54.84,1818
54.92,3070
55,3919
55.08,3575
55.16,2949
55.24,2202
55.32,1374
55.4,1050
55.48,808
55.56,686
55.64,666
55.72,727
55.8,817
55.88,789
55.96,788
56.04,828
56.12,706
56.2,747
56.28,705
56.36,749
56.44,634
56.52,701
56.6,768
56.68,620
56.76,738
56.84,743
56.92,767
57,710
57.08,677
57.16,681
57.24,728
57.32,714
57.4,700
57.48,684
57.56,645
57.64,667
57.72,626
57.8,669
57.88,675
57.96,722
58.04,709
58.12,696
58.2,681
58.28,667
58.36,687
58.44,626
58.52,626
58.6,747
58.68,673
58.76,722
58.84,610
58.92,707
59,725
59.08,725
59.16,725
59.24,725
59.32,685
59.4,744
59.48,706
59.56,746
59.64,646
59.72,687
59.8,808
59.88,949
59.96,1050
60.04,1374
60.12,1576
60.2,1899
60.28,1656
60.36,1717
60.44,1273
60.52,1111
60.6,889
60.68,848
60.76,727
60.84,768
60.92,646
61,586
61.08,525
61.16,606
61.24,687
61.32,707
61.4,768
61.48,828
61.56,747
61.64,626
61.72,667
61.8,747
61.88,646
61.96,768
62.04,727
62.12,949
62.2,929
62.28,1050
62.36,949
62.44,949
62.52,947
62.6,908
62.68,833
62.76,797
62.84,671
62.92,639
63,779
63.08,701
63.16,728
63.24,718
63.32,747
63.4,707
63.48,668
63.56,747
63.64,651
63.72,700
63.8,587
63.88,657
63.96,727
64.04,584
64.12,626
64.2,707
64.28,715
64.36,702
64.44,722
64.52,738
64.6,874
64.68,970
64.76,1092
64.84,1177
64.92,1203
65,984
65.08,884
65.16,758
65.24,830
65.32,749
65.4,605
65.48,630
65.56,687
65.64,626
65.72,606
65.8,656
65.88,645
65.96,707
66.04,747
66.12,687
66.2,727
66.28,768
66.36,692
66.44,772
66.52,785
66.6,856
66.68,1078
66.76,1392
66.84,1672
66.92,1685
67,1567
67.08,1257
67.16,1188
67.24,893
67.32,748
67.4,750
67.48,739
67.56,676
67.64,713
67.72,760
67.8,793
67.88,901
67.96,1043
68.04,1255
68.12,1444
68.2,1411
68.28,1288
68.36,1118
68.44,941
68.52,849
68.6,844
68.68,815
68.76,668
68.84,823
68.92,819
69,873
69.08,909
69.16,788
69.24,889
69.32,990
69.4,869
69.48,869
69.56,687
69.64,606
69.72,707
69.8,626
69.88,606
69.96,707
70.04,747
70.12,808
70.2,1192
70.28,1434
70.36,1475
70.44,1293
70.52,1151
70.6,1111
70.68,889
70.76,929
70.84,1151
70.92,1333
71,1576
71.08,1939
71.16,2343
71.24,2283
71.32,2000
71.4,1838
71.48,1596
71.56,1091
71.64,929
71.72,848
71.8,667
71.88,747
71.96,828
72.04,747
72.12,828
72.2,869
72.28,1071
72.36,1212
72.44,1293
72.52,1515
72.6,1495
72.68,1293
72.76,1131
72.84,1151
72.92,788
73,757
73.08,698
73.16,648
73.24,687
73.32,625
73.4,566
73.48,605
73.56,626
73.64,606
73.72,525
73.8,566
73.88,505
73.96,516
74.04,525
74.12,566
74.2,538
74.28,522
74.36,547
74.44,613
74.52,495
74.6,519
74.68,502
74.76,646
74.84,606
74.92,483
75,519
75.08,530
75.16,567
75.24,626
75.32,606
75.4,626
75.48,566
75.56,587
75.64,630
75.72,556
75.8,542
75.88,529
75.96,556
76.04,521
76.12,528
76.2,646
76.28,606
76.36,566
76.44,545
76.52,586
76.6,545
76.68,566
76.76,687
76.84,545
76.92,687
77,571
77.08,680
77.16,630
77.24,572
77.32,546
77.4,623
77.48,727
77.56,747
77.64,1010
77.72,848
77.8,1050
77.88,1172
77.96,889
78.04,768
78.12,768
78.2,626
78.28,606
78.36,525
78.44,586
78.52,505
78.6,424
78.68,424
78.76,444
78.84,364
78.92,525
79,465
79.08,444
79.16,606
79.24,465
79.32,424
79.4,444
79.48,525
79.56,586
79.64,545
79.72,606
79.8,505
79.88,505
79.96,505
80.04,444
80.12,505
80.2,505
80.28,465
80.36,545
80.44,606
80.52,525
80.6,646
80.68,626
80.76,505
80.84,525
80.92,626
81,606
81.08,566
81.16,727
81.24,707
81.32,687
81.4,707
81.48,667
81.56,747
81.64,1151
81.72,1454
81.8,1697
81.88,1596
81.96,1555
82.04,1636
82.12,1172
82.2,889
82.28,949
82.36,667
82.44,646
82.52,606
82.6,626
82.68,485
82.76,525
82.84,505
82.92,545
83,505
83.08,465
83.16,525
83.24,444
83.32,444
83.4,586
83.48,444
83.56,404
83.64,485
83.72,485
83.8,465
83.88,465
83.96,505
84.04,545
84.12,444
84.2,545
84.28,424
84.36,465
84.44,485
84.52,626
84.6,646
84.68,667
84.76,545
84.84,545
84.92,465
85,485
85.08,505
85.16,545
85.24,606
85.32,545
85.4,626
85.48,687
85.56,687
85.64,808
85.72,869
85.8,929
85.88,1151
85.96,869
86.04,1030
86.12,889
86.2,889
86.28,687
86.36,664
86.44,621
86.52,636
86.6,603
86.68,578
86.76,557
86.84,626
86.92,566
87,626
87.08,606
87.16,587
87.24,586
87.32,545
87.4,525
87.48,472
87.56,545
87.64,505
87.72,586
87.8,646
87.88,626
87.96,572
88.04,560
88.12,606
88.2,566
88.28,545
88.36,545
88.44,485
88.52,465
88.6,444
88.68,465
88.76,505
88.84,606
88.92,525
89,667
89.08,545
89.16,626
89.24,505
89.32,485
89.4,566
89.48,525
89.56,525
89.64,566
89.72,586
89.8,646
89.88,747
89.96,747
90.04,566
90.12,707
90.2,869
90.28,828
90.36,869
90.44,808
90.52,848
90.6,808
90.68,707
90.76,788
90.84,727
90.92,747
91,586
91.08,606
91.16,525
91.24,586
91.32,606
91.4,525
91.48,566
91.56,606
91.64,606
91.72,566
91.8,626
91.88,747
91.96,606
92.04,687
92.12,667
92.2,646
92.28,586
92.36,646
92.44,545
92.52,646
92.6,626
92.68,525
92.76,646
92.84,525
92.92,545
93,606
93.08,626
93.16,607
93.24,607
93.32,606
93.4,587
93.48,646
93.56,667
93.64,667
93.72,545
93.8,545
93.88,645
93.96,586
94.04,707
94.12,667
94.2,768
94.28,808
94.36,889
94.44,949
94.52,828
94.6,808
94.68,970
94.76,707
94.84,848
94.92,727
95,606
95.08,687
95.16,525
95.24,626
95.32,586
95.4,626
95.48,586
95.56,626
95.64,646
95.72,646
95.8,606
95.88,707
95.96,687
96.04,646
96.12,747
96.2,869
96.28,848
96.36,869
96.44,889
96.52,727
96.6,667
96.68,667
96.76,566
96.84,606
96.92,566
97,687
97.08,667
97.16,586
97.24,626
97.32,606
97.4,768
97.48,707
97.56,747
97.64,687
97.72,707
97.8,848
97.88,828
97.96,646
98.04,727
98.12,727
98.2,707
98.28,667
98.36,626
98.44,727
98.52,707
98.6,667
98.68,687
98.76,646
98.84,727
98.92,667
99,626
99.08,667
99.16,626
99.24,747
99.32,788
99.4,687
99.48,828
99.56,667
99.64,768
99.72,768
99.8,869
99.88,586
99.96,768
100.04,788
100.12,889
100.2,949
100.28,1151
100.36,1111
100.44,990
100.52,970
100.6,889
100.68,869
100.76,768
100.84,768
100.92,747
101,687
101.08,768
101.16,788
101.24,768
101.32,788
101.4,808
101.48,848
101.56,808
101.64,646
101.72,768
101.8,747
101.88,788
101.96,848
102.04,566
102.12,687
102.2,727
102.28,667
102.36,566
102.44,566
102.52,566
102.6,606
102.68,505
102.76,586
102.84,606
102.92,687
103,586
103.08,646
103.16,606
103.24,687
103.32,848
103.4,707
103.48,727
103.56,646
103.64,665
103.72,614
103.8,624
103.88,696
103.96,688
104.04,680
104.12,656
104.2,678
104.28,685
104.36,761
104.44,807
104.52,909
104.6,1010
104.68,1030
104.76,1030
104.84,990
104.92,909
105,889
105.08,929
105.16,869
105.24,828
105.32,1010
105.4,889
105.48,828
105.56,949
105.64,869
105.72,848
105.8,929
105.88,970
105.96,929
106.04,848
106.12,970
106.2,1050
106.28,808
106.36,828
106.44,828
106.52,869
106.6,828
106.68,727
106.76,768
106.84,747
106.92,768
107,808
107.08,707
107.16,667
107.24,667
107.32,606
107.4,667
107.48,606
107.56,747
107.64,626
107.72,667
107.8,566
107.88,566
107.96,687
108.04,667
108.12,828
108.2,747
108.28,707
108.36,747
108.44,707
108.52,828
108.6,949
108.68,1050
108.76,929
108.84,1071
108.92,1111
109,1091
109.08,1091
109.16,1071
109.24,1071
109.32,1172
109.4,869
109.48,889
109.56,848
109.64,828
109.72,848
109.8,768
109.88,788
109.96,727
110.04,667
110.12,687
110.2,808
110.28,646
110.36,727
110.44,768
110.52,788
110.6,707
110.68,768
110.76,788
110.84,909
110.92,990
111,1192
111.08,1172
111.16,1071
111.24,808
111.32,949
111.4,990
111.48,808
111.56,889
111.64,848
111.72,687
111.8,808
111.88,687
111.96,727
112.04,747
112.12,768
112.2,566
112.28,667
112.36,626
112.44,687
112.52,626
112.6,646
112.68,606
112.76,707
112.84,586
112.92,586
113,566
113.08,606
113.16,646
113.24,626
113.32,606
113.4,687
113.48,707
113.56,768
113.64,848
113.72,768
113.8,949
113.88,788
113.96,707
114.04,768
114.12,768
114.2,747
114.28,869
114.36,808
114.44,848
114.52,990
114.6,990
114.68,1010
114.76,1030
114.84,909
114.92,929
115,909
115.08,970
115.16,990
115.24,889
115.32,990
115.4,869
115.48,929
115.56,889
115.64,949
115.72,929
115.8,808
115.88,707
115.96,828
116.04,808
116.12,626
116.2,566
116.28,707
116.36,646
116.44,707
116.52,626
116.6,626
116.68,687
116.76,606
116.84,646
116.92,646
117,525
117.08,566
117.16,606
117.24,485
117.32,525
117.4,606
117.48,525
117.56,505
117.64,505
117.72,606
117.8,566
117.88,505
117.96,586
118.04,525
118.12,505
118.2,586
118.28,505
118.36,525
118.44,586
118.52,626
118.6,606
118.68,667
118.76,687
118.84,747
118.92,626
119,606
119.08,646
119.16,626
119.24,687
119.32,606
119.4,606
119.48,545
119.56,525
119.64,505
119.72,505
119.8,566
119.88,465
119.96,606
120.02,606