File: data/xrd_icdd_PDF/00-067-0344 (PD3).csv
2.6127,38.03929
2.7127,37.77509
2.8127,42.9111
2.9127,36.95133
3.0127,33.28927
3.1127,38.91472
3.2127,36.70882
3.3127,42.30055
3.4127,37.3704
3.5127,32.76171
3.6127,42.1566
3.7127,38.58169
3.8127,63.14959
3.9127,63.57528
4.0127,69.23442
4.1127,86.76996
4.2127,122.054
4.3127,155.5551
4.4127,267.322
4.5127,385.43
4.6127,427.426
4.7127,471.828
4.8127,529.848
4.9127,599.062
5.0127,726.894
5.1127,808.514
5.2127,867.396
5.3127,852.1996
5.4127,920.906
5.5127,948.306
5.6127,975.65
5.7127,956.412
5.8127,924.413
5.9127,991.6943
6.0127,933.06
6.1127,963.101
6.2127,935.897
6.3127,906.456
6.4127,943.114
6.5127,896.001
6.6127,896.668
6.7127,897.083
6.8127,928.477
6.9127,874.888
7.0127,880.1517
7.1127,901.893
7.2127,836.176
7.3127,874.3752
7.4127,847.076
7.5127,808.2
7.6127,822.879
7.7127,816.125
7.8127,810.712
7.9127,816.281
8.0127,808.809
8.1127,819.746
8.2127,831.24
8.3127,784.165
8.4127,741.305
8.5127,760.939
8.6127,736.922
8.7127,752.561
8.8127,757.2513
8.9127,751.481
9.0127,751.751
9.1127,713.972
9.2127,713.539
9.3127,727.647
9.4127,702.561
9.5127,693.661
9.6127,699.089
9.7127,691.839
9.8127,696.9551
9.9127,694.966
10.0127,668.266
10.1127,683.432
10.2127,691.4344
10.3127,649.326
10.4127,671.383
10.5127,640.654
10.6127,641.375
10.7127,625.3921
10.8127,642.414
10.9127,634.571
11.0127,617.927
11.1127,631.019
11.2127,618.6
11.3127,637.182
11.4127,642.355
11.5127,597.1485
11.6127,617.295
11.7127,633.3058
11.8127,623.409
11.9127,618.798
12.0127,645.88
12.1127,599.419
12.2127,603.718
12.3127,605.847
12.4127,619.125
12.5127,620.838
12.6127,623.157
12.7127,605.093
12.8127,607.8164
12.9127,578.185
13.0127,599.0636
13.1127,595.9679
13.2127,602.24
13.3127,583.1539
13.4127,617.101
13.5127,594.937
13.6127,590.275
13.7127,595.481
13.8127,596.997
13.9127,603.987
14.0127,577.974
14.1127,583.519
14.2127,569.229
14.3127,578.007
14.4127,559.748
14.5127,570.444
14.6127,554.528
14.7127,585.58
14.8127,596.503
14.9127,578.9
15.0127,573.369
15.1127,582.731
15.2127,576.096
15.3127,601.61
15.4127,625.195
15.5127,583.576
15.6127,635.211
15.7127,624.006
15.8127,616.8845
15.9127,642.82
16.0127,584.559
16.1127,631.622
16.2127,602.4291
16.3127,599.589
16.4127,622.6602
16.5127,579.722
16.6127,591.548
16.7127,556.541
16.8127,583.258
16.9127,571.948
17.0127,556.297
17.1127,590.375
17.2127,565.186
17.3127,557.9594
17.4127,620.283
17.5127,579.494
17.6127,557.138
17.7127,628.68
17.8127,596.3107
17.9127,585.273
18.0127,620.973
18.1127,625.423
18.2127,659.613
18.3127,629.988
18.4127,654.458
18.5127,706.656
18.6127,674.599
18.7127,682.518
18.8127,697.328
18.9127,638.7763
19.0127,610.203
19.1127,610.899
19.2127,575.519
19.3127,576.86
19.4127,547.481
19.5127,565.002
19.6127,553.82
19.7127,543.932
19.8127,538.8505
19.9127,536.73
20.0127,520.06
20.1127,574.341
20.2127,543.521
20.3127,527.174
20.4127,548.296
20.5127,499.549
20.6127,528.199
20.7127,542.915
20.8127,557.883
20.9127,522.258
21.0127,553.493
21.1127,554.217
21.2127,548.329
21.3127,520.632
21.4127,531.706
21.5127,541.743
21.6127,516.79
21.7127,512.684
21.8127,511.362
21.9127,508.871
22.0127,520.085
22.1127,521.72
22.2127,540.168
22.3127,531.602
22.4127,501.746
22.5127,516.9793
22.6127,552.787
22.7127,518.066
22.8127,579.092
22.9127,518.071
23.0127,544.082
23.1127,550.9083
23.2127,551.017
23.3127,515.784
23.4127,551.203
23.5127,533.833
23.6127,547.714
23.7127,516.159
23.8127,551.758
23.9127,553.772
24.0127,571.063
24.1127,557.618
24.2127,563.469
24.3127,565.201
24.4127,568.099
24.5127,578.226
24.6127,593.699
24.7127,600.35
24.8127,581.857
24.9127,562.073
25.0127,595.827
25.1127,559.162
25.2127,529.149
25.3127,540.555
25.4127,560.81
25.5127,558.124
25.6127,586.449
25.7127,544.341
25.8127,594.827
25.9127,578.703
26.0127,626.52
26.1127,647.975
26.2127,696.9194
26.3127,706.137
26.4127,732.845
26.5127,699.57
26.6127,665.318
26.7127,628.401
26.8127,606.91
26.9127,606.643
27.0127,584.7516
27.1127,577.019
27.2127,550.107
27.3127,528.838
27.4127,534.9183
27.5127,551.21
27.6127,531.015
27.7127,529.868
27.8127,550.069
27.9127,516.925
28.0127,519.0468
28.1127,546.179
28.2127,535.894
28.3127,525.179
28.4127,531.284
28.5127,510.876
28.6127,508.211
28.7127,544.645
28.8127,514.327
28.9127,538.567
29.0127,526.23
29.1127,530.768
29.2127,532.712
29.3127,547.14
29.4127,562.514
29.5127,561.299
29.6127,558.464
29.7127,586.424
29.8127,653.21
29.9127,626.168
30.0127,684.403
30.1127,695.551
30.2127,790.067
30.3127,853.344
30.4127,993.317
30.5127,1103.53
30.6127,1339.71
30.7127,1657.2
30.8127,2033.22
30.9127,2186.71
31.0127,2200.93
31.1127,1973.16
31.2127,1675.56
31.3127,1348.28
31.4127,1124.73
31.5127,899.848
31.6127,763.878
31.7127,725.451
31.8127,752.846
31.9127,841.247
32.0127,888.029
32.1127,928.955
32.2127,939.921
32.3127,875.494
32.4127,820.708
32.5127,722.99
32.6127,655.956
32.7127,619.678
32.8127,565.325
32.9127,581.5777
33.0127,566.485
33.1127,577.039
33.2127,585.142
33.3127,581.6196
33.4127,567.592
33.5127,575.751
33.6127,627.686
33.7127,620.726
33.8127,608.727
33.9127,619.6184
34.0127,603.726
34.1127,612.2766
34.2127,631.617
34.3127,634.873
34.4127,646.777
34.5127,583.204
34.6127,597.403
34.7127,691.788
34.8127,637.256
34.9127,643.948
35.0127,611.527
35.1127,611.25
35.2127,557.908
35.3127,565.45
35.4127,593.282
35.5127,583.306
35.6127,592.0656
35.7127,593.357
35.8127,567.358
35.9127,593.684
36.0127,576.518
36.1127,572.06
36.2127,591.627
36.3127,573.9
36.4127,648.029
36.5127,716.863
36.6127,774.652
36.7127,903.457
36.8127,1096.52
36.9127,1373.62
37.0127,1643.03
37.1127,2234.08
37.2127,2884.78
37.3127,3599.72
37.4127,4175.359
37.5127,4724.09
37.6127,5145.03
37.7127,5344.44
37.8127,5623.31
37.9127,6152.49
38.0127,7170.79
38.1127,9272.43
38.2127,12388.3
38.3127,14761
38.4127,15310.2
38.5127,14437.1
38.6127,12419.9
38.7127,9312.24
38.8127,6170.35
38.9127,3889.99
39.0127,2266.91
39.1127,1278.04
39.2127,875.831
39.3127,787.085
39.4127,832.617
39.5127,794.332
39.6127,722.6
39.7127,692.752
39.8127,652.584
39.9127,644.589
40.0127,595.644
40.1127,589.1559
40.2127,575.375
40.3127,595.0419
40.4127,623.01
40.5127,601.696
40.6127,624.918
40.7127,613.813
40.8127,636.5746
40.9127,647.704
41.0127,665.606
41.1127,713.756
41.2127,725.116
41.3127,823.401
41.4127,1025.94
41.5127,1290.82
41.6127,1751.35
41.7127,2231.09
41.8127,3210.08
41.9127,4298.3
42.0127,5770.07
42.1127,7350.04
42.2127,8613.16
42.3127,8696.14
42.4127,8148.64
42.5127,6820.75
42.6127,5093.43
42.7127,3327.95
42.8127,2161.34
42.9127,1300.24
43.0127,859.421
43.1127,708.839
43.2127,690.964
43.3127,663.203
43.4127,647.288
43.5127,654.633
43.6127,638.523
43.7127,660.36
43.8127,678.13
43.9127,699.671
44.0127,712.209
44.1127,759.663
44.2127,830.374
44.3127,819.237
44.4127,820.1937
44.5127,769.699
44.6127,698.291
44.7127,707.843
44.8127,673.439
44.9127,647.875
45.0127,677.413
45.1127,741.2627
45.2127,850.416
45.3127,935.685
45.4127,1082.53
45.5127,1104.31
45.6127,1059.12
45.7127,961.348
45.8127,868.576
45.9127,820.982
46.0127,737.89
46.1127,671.441
46.2127,594.809
46.3127,592.311
46.4127,594.004
46.5127,540.224
46.6127,542.857
46.7127,567.08
46.8127,522.442
46.9127,499.737
47.0127,528.582
47.1127,542.921
47.2127,536.218
47.3127,524.206
47.4127,532.337
47.5127,524.263
47.6127,534.185
47.7127,530.625
47.8127,530.9334
47.9127,526.477
48.0127,558.221
48.1127,566.557
48.2127,556.472
48.3127,557.326
48.4127,633.658
48.5127,656.693
48.6127,833.046
48.7127,994.001
48.8127,1200.67
48.9127,1646.91
49.0127,1991.21
49.1127,2208.34
49.2127,2250.37
49.3127,2171.85
49.4127,1856.75
49.5127,1528.87
49.6127,1236.9
49.7127,1039.96
49.8127,978.68
49.9127,1112.77
50.0127,1468.28
50.1127,2012.33
50.2127,2566.71
50.3127,2988.4
50.4127,3056.01
50.5127,2994.75
50.6127,2873.8
50.7127,2653.41
50.8127,2605.32
50.9127,2592.53
51.0127,2383.55
51.1127,2186.23
51.2127,1817.44
51.3127,1376.5
51.4127,1068.94
51.5127,805.0054
51.6127,693.57
51.7127,621.673
51.8127,573.141
51.9127,578.154
52.0127,560.935
52.1127,573.808
52.2127,621.196
52.3127,633.828
52.4127,650.219
52.5127,678.668
52.6127,704.71
52.7127,813.296
52.8127,896.3979
52.9127,997.032
53.0127,998.377
53.1127,949.0554
53.2127,857.874
53.3127,737.502
53.4127,654.518
53.5127,639.44
53.6127,630.532
53.7127,640.821
53.8127,681.701
53.9127,820.213
54.0127,932.073
54.1127,1104.04
54.2127,1225.39
54.3127,1291.72
54.4127,1225.15
54.5127,1257.63
54.6127,1334.88
54.7127,1360.7
54.8127,1543.86
54.9127,1557.1
55.0127,1487.2
55.1127,1376.81
55.2127,1119.12
55.3127,891.379
55.4127,769.265
55.5127,687.596
55.6127,626.04
55.7127,593.1499
55.8127,593.969
55.9127,595.441
56.0127,667.971
56.1127,752.183
56.2127,933.1645
56.3127,1257.71
56.4127,1734.76
56.5127,2184.39
56.6127,2469.86
56.7127,2619.95
56.8127,2432.08
56.9127,2028.81
57.0127,1625.29
57.1127,1235.47
57.2127,988.99
57.3127,867.502
57.4127,802.728
57.5127,914.728
57.6127,1089.98
57.7127,1489.04
57.8127,1864.95
57.9127,2041.45
58.0127,2059.08
58.1127,1839.83
58.2127,1521.75
58.3127,1102.96
58.4127,855.006
58.5127,716.359
58.6127,595.754
58.7127,568.629
58.8127,574.53
58.9127,580.7147
59.0127,591.63
59.1127,561.494
59.2127,551.046
59.3127,555.96
59.4127,569.623
59.5127,573.754
59.6127,578.7
59.7127,560.386
59.8127,613.142
59.9127,601.023
60.0127,581.542
60.1127,607.789
60.2127,643.16
60.3127,709.484
60.4127,780.943
60.5127,756.788
60.6127,798.926
60.7127,808.182
60.8127,841.231
60.9127,952.992
61.0127,1220.19
61.1127,1696.21
61.2127,2531.9
61.3127,3330.98
61.4127,3799.84
61.5127,4045.52
61.6127,4199.94
61.7127,4290.532
61.8127,4429.46
61.9127,4528.86
62.0127,4265.91
62.1127,3629.56
62.2127,2857.25
62.3127,2006.99
62.4127,1406.51
62.5127,1061.99
62.6127,799.079
62.7127,744.99
62.8127,660.492
62.9127,639.95
63.0127,649.241
63.1127,653.903
63.2127,616.749
63.3127,636.829
63.4127,637.595
63.5127,628.159
63.6127,635.705
63.7127,674.567
63.8127,718.742
63.9127,742.731
64.0127,792.2252
64.1127,996.836
64.2127,1385.6
64.3127,2146
64.4127,3204.41
64.5127,4036.66
64.6127,4201.36
64.7127,4034.32
64.8127,3209.53
64.9127,2237.62
65.0127,1541.57
65.1127,1076.96
65.2127,757.8
65.3127,693.729
65.4127,660.272
65.5127,635.636
65.6127,624.848
65.7127,628.515
65.8127,602.788
65.9127,661.73
66.0127,675.165
66.1127,751.686
66.2127,916.252
66.3127,1179.93
66.4127,1560.94
66.5127,2116.73
66.6127,3036.67
66.7127,3939.82
66.8127,4399.9
66.9127,4420.65
67.0127,4195.06
67.1127,3709.51
67.2127,3370.75
67.3127,3103.46
67.4127,2747.12
67.5127,2306.42
67.6127,1917.69
67.7127,1646.01
67.8127,1414.56
67.9127,1184.52
68.0127,1088.88
68.1127,1007.01
68.2127,814.344
68.3127,686.2774
68.4127,636.6
68.5127,592.926
68.6127,594.508
68.7127,547.651
68.8127,562.674
68.9127,575.589
69.0127,568.524
69.1127,578.5908
69.2127,554.055
69.3127,556.323
69.4127,605.857
69.5127,574.95
69.6127,575.232
69.7127,601.707
69.8127,599.802
69.9127,626.667
70.0127,627.756
70.1127,679.122
70.2127,743.1438
70.3127,715.854
70.4127,763.325
70.5127,808.312
70.6127,925.6692
70.7127,1207.12
70.8127,1729.42
70.9127,2426.4
71.0127,3035.21
71.1127,3226.66
71.2127,3213.57
71.3127,2965.11
71.4127,2656.94
71.5127,2398.19
71.6127,2004.45
71.7127,1789.94
71.8127,1387.48
71.9127,1075.95
72.0127,862.818
72.1127,723.58
72.2127,649.19
72.3127,619.089
72.4127,626.406
72.5127,622.206
72.6127,616.6746
72.7127,590.9118
72.8127,619.955
72.9127,665.799
73.0127,645.8633
73.1127,637.729
73.2127,623.138
73.3127,691.727
73.4127,758.665
73.5127,791.651
73.6127,835.119
73.7127,800.679
73.8127,811.605
73.9127,720.711
74.0127,656.131
74.1127,633.022
74.2127,611.971
74.3127,584.537
74.4127,583.706
74.5127,604.858
74.6127,632.298
74.7127,681.281
74.8127,681.275
74.9127,727.063
75.0127,691.449
75.1127,676.592
75.2127,629.791
75.3127,614.303
75.4127,623.928
75.5127,603.254
75.6127,619.606
75.7127,638.367
75.8127,782.626
75.9127,999.3578
76.0127,1544.69
76.1127,2552.41
76.2127,3427.65
76.3127,3772.69
76.4127,3561.13
76.5127,2852.31
76.6127,2016.28
76.7127,1310.31
76.8127,944.612
76.9127,786.449
77.0127,702.22
77.1127,650.796
77.2127,633.599
77.3127,660.389
77.4127,690.298
77.5127,678.242
77.6127,680.814
77.7127,640.796
77.8127,622.911
77.9127,570.5
78.0127,595.225
78.1127,575.4141
78.2127,590.7769
78.3127,631.991
78.4127,645.282
78.5127,662.493
78.6127,719.873
78.7127,880.6376
78.8127,1120.6
78.9127,1539.23
79.0127,2014.19
79.1127,2662.15
79.2127,3490.64
79.3127,3822.08
79.4127,3793.191
79.5127,3596.67
79.6127,3250.66
79.7127,3019.54
79.8127,2757.41
79.9127,2556.36
80.0127,2159.46
80.1127,1913.55
80.2127,2109.21
80.3127,2723.76
80.4127,3480.14
80.5127,4043.07
80.6127,4569.95
80.7127,5358.93
80.8127,6991.68
80.9127,8304.84
81.0127,8512.56
81.1127,7519.83
81.2127,5420.95
81.3127,3420.92
81.4127,2327.07
81.5127,1611.24
81.6127,1253.31
81.7127,1034.48
81.8127,915.248
81.9127,851.191
82.0127,843.2675
82.1127,770.258
82.2127,786.837
82.3127,848.422
82.4127,1032.45
82.5127,1442.23
82.6127,2431.09
82.7127,3595.84
82.8127,4258.26
82.9127,4218.93
83.0127,3556.36
83.1127,2603.46
83.2127,1946.46
83.3127,1610.23
83.4127,1512.22
83.5127,1371.81
83.6127,1250.99
83.7127,1065.06
83.8127,876.969
83.9127,754.744
84.0127,700.65
84.1127,677.711
84.2127,767.765
84.3127,877.409
84.4127,1379.21
84.5127,2244.59
84.6127,3191.93
84.7127,3630.04
84.8127,3541.23
84.9127,2877.21
85.0127,2097.82
85.1127,1541.98
85.2127,1185.39
85.3127,1031.7
85.4127,1050.07
85.5127,1255.84
85.6127,1540.32
85.7127,1696.93
85.8127,1598.89
85.9127,1428.2
86.0127,1266.68
86.1127,1222.2
86.2127,1617.46
86.3127,2528.76
86.4127,3605.4
86.5127,4198.44
86.6127,3960.24
86.7127,3172.69
86.8127,2225.95
86.9127,1490.05
87.0127,1033.68
87.1127,826.933
87.2127,740.189
87.3127,671.2374
87.4127,690.943
87.5127,763.653
87.6127,800.112
87.7127,814.085
87.8127,809.557
87.9127,820.724
88.0127,759.922
88.1127,689.869
88.2127,751.822
88.3127,843.061
88.4127,1021.62
88.5127,1207.59
88.6127,1320.68
88.7127,1280.8
88.8127,1104.06
88.9127,916.536
89.0127,798.727
89.1127,722.81
89.2127,736.828
89.3127,725.299
89.4127,759.93
89.5127,865.4
89.6127,1071.11
89.7127,1373.01
89.8127,1475.48
89.9127,1357.09
90.0127,1144
90.1127,929.116
90.2127,778.742
90.3127,689.102
90.4127,672.175
90.5127,694.337
90.6127,779.364
90.7127,793.944
90.8127,797.918
90.9127,729.752
91.0127,715.325
91.1127,711.0743
91.2127,639.398
91.3127,607.338
91.4127,663.589
91.5127,624.29
91.6127,671.736
91.7127,722.588
91.8127,764.699
91.9127,922.837
92.0127,1347.1
92.1127,2167.37
92.2127,3324.08
92.3127,3994.35
92.4127,3920.08
92.5127,3196.99
92.6127,2374.48
92.7127,1900.64
92.8127,1825.27
92.9127,1871.31
93.0127,1821.84
93.1127,1561.4
93.2127,1290.68
93.3127,998.435
93.4127,859.013
93.5127,850.484
93.6127,880.479
93.7127,876.212
93.8127,856.748
93.9127,759.658
94.0127,742.044
94.1127,725.767
94.2127,744.769
94.3127,859.9
94.4127,1086.76
94.5127,1458.8
94.6127,1914.36
94.7127,2201.34
94.8127,2122.03
94.9127,1948.91
95.0127,1710.8
95.1127,1682.77
95.2127,1949.82
95.3127,2054.43
95.4127,1979.39
95.5127,1542.3
95.6127,1152.45
95.7127,918.3263
95.8127,740.782
95.9127,666.3433
96.0127,632.063
96.1127,611.803
96.2127,579.455
96.3127,618.69
96.4127,634.9662
96.5127,656.178
96.6127,732.783
96.7127,758.35
96.8127,789.356
96.9127,783.759
97.0127,806.1513
97.1127,821.321
97.2127,777.884
97.3127,789.2887
97.4127,877.673
97.5127,1202.76
97.6127,2025.97
97.7127,3099.97
97.8127,3794.72
97.9127,3566.23
98.0127,2848.07
98.1127,2000.22
98.2127,1417.59
98.3127,1084.74
98.4127,935.846
98.5127,929.838
98.6127,1057.73
98.7127,1511.48
98.8127,2255.02
98.9127,3075.06
99.0127,3230.23
99.1127,2766.34
99.2127,1904.17
99.3127,1398.25
99.4127,1037.93
99.5127,844.287
99.6127,749.5421
99.7127,681.4281
99.8127,700.796
99.9127,689.084
100.0127,712.849
100.1127,768.398
100.2127,919.741
100.3127,1127.72
100.4127,1251.24
100.5127,1203.34
100.6127,1021.1
100.7127,920.238
100.8127,824.777
100.9127,747.523
101.0127,764.885
101.1127,884.017
101.2127,1096.93
101.3127,1324.92
101.4127,1328.23
101.5127,1141.06
101.6127,964.415
101.7127,824.951
101.8127,729.873
101.9127,682.1
102.0127,691.756
102.1127,687.101
102.2127,721.265
102.3127,739.209
102.4127,837.588
102.5127,1161.05
102.6127,1811.46
102.7127,2328.29
102.8127,2475.39
102.9127,2309.6
103.0127,2104.37
103.1127,1945.72
103.2127,1707.41
103.3127,1445.68
103.4127,1254.17
103.5127,1086.16
103.6127,953.219
103.7127,833.862
103.8127,742.158
103.9127,689.52
104.0127,643.517
104.1127,649.196
104.2127,649.718
104.3127,667.127
104.4127,657.371
104.5127,666.205
104.6127,662.2326
104.7127,647.3144
104.8127,692.022
104.9127,805.114
105.0127,898.527
105.1127,934.773
105.2127,882.783
105.3127,806.146
105.4127,719.333
105.5127,666.5372
105.6127,633.641
105.7127,618.506
105.8127,616.778
105.9127,633.085
106.0127,672.3212
106.1127,793.62
106.2127,938.088
106.3127,1274.49
106.4127,1803.39
106.5127,2202.43
106.6127,2376.71
106.7127,2770.22
106.8127,3529.64
106.9127,4334.34
107.0127,4211.71
107.1127,3410.53
107.2127,2531.53
107.3127,1863.51
107.4127,1451.75
107.5127,1258.13
107.6127,1198.25
107.7127,1195.55
107.8127,1247.22
107.9127,1461.84
108.0127,1565.1
108.1127,1392.55
108.2127,1134.03
108.3127,927.275
108.4127,815.686
108.5127,729.815
108.6127,677.848
108.7127,652.245
108.8127,628.413
108.9127,617.654
109.0127,620.341
109.1127,599.327
109.2127,571.0021
109.3127,602.394
109.4127,618.005
109.5127,620.373
109.6127,602.54
109.7127,633.554
109.8127,614.96
109.9127,669.394
110.0127,689.601
110.1127,696.014
110.2127,654.362
110.3127,633.238
110.4127,673.071
110.5127,636.89
110.6127,622.335
110.7127,640.476
110.8127,650.73
110.9127,624.34
111.0127,644.186
111.1127,625.778
111.2127,598.143
111.3127,620.305
111.4127,602.183
111.5127,630.98
111.6127,623.808
111.7127,617.346
111.8127,657.096
111.9127,735.515
112.0127,874.408
112.1127,1046.28
112.2127,1272.41
112.3127,1573.77
112.4127,1760.22
112.5127,1845.29
112.6127,1899.71
112.7127,2142.922
112.8127,2567.89
112.9127,2800.42
113.0127,2737.88
113.1127,2519.16
113.2127,2151.86
113.3127,1722.63
113.4127,1322.96
113.5127,1037.26
113.6127,886.697
113.7127,755.456
113.8127,689.52
113.9127,683.467
114.0127,647.3
114.1127,630.86
114.2127,632.307
114.3127,648.962
114.4127,655.516
114.5127,646.339
114.6127,659.51
114.7127,711.137
114.8127,739.4695
114.9127,734.668
115.0127,770.902
115.1127,832.461
115.2127,826.584
115.3127,896.046
115.4127,1011.31
115.5127,1156.95
115.6127,1509.52
115.7127,1875.63
115.8127,2024.01
115.9127,1796.07
116.0127,1465.7
116.1127,1248.86
116.2127,1122.3
116.3127,1181.58
116.4127,1492.33
116.5127,2181.95
116.6127,2726.69
116.7127,2848.78
116.8127,2558.08
116.9127,2228.14
117.0127,2346.37
117.1127,2612.38
117.2127,2765.36
117.3127,2566.14
117.4127,2064.19
117.5127,1666.04
117.6127,1402.52
117.7127,1336.81
117.8127,1380.62
117.9127,1455.85
118.0127,1400.09
118.1127,1232.33
118.2127,1048.5
118.3127,884.362
118.4127,801.853
118.5127,827.208
118.6127,864.425
118.7127,911.961
118.8127,919.724
118.9127,882.11
119.0127,914.658
119.1127,876.963
119.2127,858.182
119.3127,766.752
119.4127,813.097
119.5127,838.499
119.6127,903.464
119.7127,1053.74
119.8127,1425.74
119.9127,1945.23
120.0127,2359.75
120.1127,2378.78
120.2127,2328.95
120.3127,2418.31
120.4127,2905.69
120.5127,3829.03
120.6127,4853.42
120.7127,5588.22
120.8127,5714.15
120.9127,5156.29
121.0127,4012.19
121.1127,2831.56
121.2127,2140.79
121.3127,1495.12
121.4127,1212.37
121.5127,1004.95
121.6127,968.985
121.7127,959.954
121.8127,1069.57
121.9127,1409.18
122.0127,2145.59
122.1127,2918.19
122.2127,3315.31
122.3127,3158.21
122.4127,2582.31
122.5127,2069.94
122.6127,1650.78
122.7127,1318
122.8127,1153.71
122.9127,1007.89
123.0127,1039.72
123.1127,1246.58
123.2127,1612.11
123.3127,2476.92
123.4127,3473.6
123.5127,4194.22
123.6127,4235.58
123.7127,3567.27
123.8127,2749.26
123.9127,2155.27
124.0127,1655.78
124.1127,1276.9
124.2127,1040.53
124.3127,895.993
124.4127,777.373
124.5127,758.817
124.6127,716.835
124.7127,677.933
124.8127,704.837
124.9127,671.885
125.0127,675.074
125.1127,668.244
125.2127,693.8495
125.3127,673.417
125.4127,700.563
125.5127,707.462
125.6127,770.07
125.7127,869.002
125.8127,1014.37
125.9127,1295.88
126.0127,1508.408
126.1127,1684.18
126.2127,1674.97
126.3127,1575.17
126.4127,1446.19
126.5127,1458.82
126.6127,1421.72
126.7127,1637.28
126.8127,1837.56
126.9127,2189.74
127.0127,2384.69
127.1127,2460.47
127.2127,2249.96
127.3127,2008.94
127.4127,1662.73
127.5127,1274.12
127.6127,1169.01
127.7127,967.335
127.8127,896.231
127.9127,826.17
128.0127,874.0156
128.1127,947.866
128.2127,1069.82
128.3127,1185.69
128.4127,1260.06
128.5127,1223.55
128.6127,1161.7
128.7127,998.864
128.8127,939.343
128.9127,838.1
129.0127,793.865
129.1127,765.418
129.2127,806.471
129.3127,837.269
129.4127,936.008
129.5127,1191.39
129.6127,1522.4
129.7127,1964.55
129.8127,2338.349
129.9127,2600.58
130.0127,2686.89
130.1127,2519.07
130.2127,2276.77
130.3127,2105.92
130.4127,1996.9
130.5127,1758.54
130.6127,1660.01
130.7127,1399.1
130.8127,1325.73
130.9127,1186.84
131.0127,1140.24
131.1127,1072.48
131.2127,1005.26
131.3127,923.892
131.4127,933.348
131.5127,961.554
131.6127,1029.72
131.7127,1093.81
131.8127,1233.02
131.9127,1283.9
132.0127,1388.38
132.1127,1405.76
132.2127,1485.5
132.3127,1668.09
132.4127,1750.11
132.5127,1836.76
132.6127,1828.38
132.7127,1665.77
132.8127,1486.07
132.9127,1307.06
133.0127,1117.31
133.1127,984.923
133.2127,889.7452
133.3127,852.684
133.4127,787.405
133.5127,787.563
133.6127,786.572
133.7127,858.053
133.8127,943.539
133.9127,1142.282
134.0127,1412.27
134.1127,1770.66
134.2127,2315.26
134.3127,2830.76
134.4127,3252.43
134.5127,3599.81
134.6127,3750.57
134.7127,3638.86
134.8127,3284.11
134.9127,2932.64
135.0127,2585.36
135.1127,2203.25
135.2127,1760.6
135.3127,1538.51
135.4127,1246.79
135.5127,1086.06
135.6127,943.012
135.7127,816.463
135.8127,733.384
135.9127,726.137
136.0127,694.162
136.1127,684.7005
136.2127,668.962
136.3127,654.116
136.4127,679
136.5127,661.819
136.6127,648.107
136.7127,647.97
136.8127,660.41
136.9127,622.052
137.0127,647.385
137.1127,652.478
137.2127,656.465
137.3127,699.866
137.4127,715.6956
137.5127,752.218
137.6127,758.675
137.7127,777.873
137.8127,802.6804
137.9127,847.743
138.0127,860.1837
138.1127,967.396
138.2127,1039.24
138.3127,1147.25
138.4127,1337.36
138.5127,1577.2
138.6127,1856.58
138.7127,2067.36
138.8127,2199.28
138.9127,2222.16
139.0127,2322.77
139.1127,2204.15
139.2127,2021.46
139.3127,1722.74
139.4127,1496.84
139.5127,1307.86
139.6127,1208.85
139.7127,1136.15
139.8127,1087.56
139.9127,501.985
140.0127,583.4699
140.1127,634.096
140.2127,675.199
140.3127,787.985
140.3627,806.469