File: data/xrd_icdd_PDF/00-055-0860 (PD3).csv
5,1981
5.1,1917
5.2,1917
5.3,1924
5.4,1924
5.5,1897
5.6,1903
5.7,1876
5.8,1890
5.9,1903
6,1959
6.1,1938
6.2,1931
6.3,1897
6.4,1931
6.5,1910
6.6,1876
6.7,1848
6.8,1821
6.9,1835
7,1835
7.1,1800
7.2,1814
7.3,1786
7.4,1821
7.5,1776
7.6,1782
7.7,1756
7.8,1749
7.9,1759
8,1752
8.1,1775
8.2,1695
8.3,1688
8.4,1657
8.5,1719
8.6,1701
8.7,1695
8.8,1663
8.9,1670
9,1663
9.1,1639
9.2,1626
9.3,1645
9.4,1663
9.5,1676
9.6,1631
9.7,1636
9.8,1636
9.9,1606
10,1577
10.1,1600
10.2,1606
10.3,1565
10.4,1565
10.5,1545
10.6,1517
10.7,1534
10.8,1545
10.9,1512
11,1517
11.1,1517
11.2,1523
11.3,1490
11.4,1506
11.5,1473
11.6,1473
11.7,1462
11.8,1462
11.9,1435
12,1435
12.1,1462
12.2,1464
12.3,1438
12.4,1453
12.5,1448
12.6,1417
12.7,1391
12.8,1407
12.9,1417
13,1386
13.1,1407
13.2,1407
13.3,1361
13.4,1371
13.5,1370
13.6,1343
13.7,1348
13.8,1378
13.9,1335
14,1380
14.1,1376
14.2,1375
14.3,1336
14.4,1350
14.5,1375
14.6,1375
14.7,1356
14.8,1355
14.9,1364
15,1357
15.1,1376
15.2,1402
15.3,1312
15.4,1360
15.5,1362
15.6,1355
15.7,1369
15.8,1368
15.9,1386
16,1376
16.1,1364
16.2,1367
16.3,1397
16.4,1386
16.5,1360
16.6,1373
16.7,1338
16.8,1318
16.9,1374
17,1391
17.1,1408
17.2,1371
17.3,1360
17.4,1376
17.5,1360
17.6,1345
17.7,1353
17.8,1376
17.9,1340
18,1366
18.1,1365
18.2,1404
18.3,1894
18.4,1790
18.5,2094
18.6,1948
18.7,1444
18.8,1372
18.9,1380
19,1364
19.1,1351
19.2,1345
19.3,1323
19.4,1340
19.5,1375
19.6,1365
19.7,1360
19.8,1371
19.9,1361
20,1371
20.1,1350
20.2,1386
20.3,1371
20.4,1351
20.5,1354
20.6,1341
20.7,1350
20.8,1378
20.9,1384
21,1430
21.1,1528
21.2,2119
21.3,6268
21.4,2731
21.5,1653
21.6,1471
21.7,1451
21.8,1401
21.9,1387
22,1368
22.1,1374
22.2,1357
22.3,1362
22.4,1368
22.5,1396
22.6,1335
22.7,1369
22.8,1347
22.9,1341
23,1376
23.1,1362
23.2,1358
23.3,1389
23.4,1412
23.5,1395
23.6,1389
23.7,1407
23.8,1945
23.9,2168
24,1515
24.1,1402
24.2,1376
24.3,1390
24.4,1350
24.5,1381
24.6,1372
24.7,1365
24.8,1324
24.9,1366
25,1340
25.1,1340
25.2,1345
25.3,1381
25.4,1348
25.5,1364
25.6,1376
25.7,1376
25.8,1354
25.9,1355
26,1356
26.1,1379
26.2,1355
26.3,1336
26.4,1381
26.5,1366
26.6,1379
26.7,1379
26.8,1408
26.9,1343
27,1381
27.1,1354
27.2,1366
27.3,1387
27.4,1340
27.5,1390
27.6,1391
27.7,1376
27.8,1386
27.9,1350
28,1381
28.1,1346
28.2,1350
28.3,1332
28.4,1340
28.5,1366
28.6,1375
28.7,1353
28.8,1374
28.9,1352
29,1389
29.1,1394
29.2,1362
29.3,1336
29.4,1369
29.5,1398
29.6,1480
29.7,1690
29.8,1933
29.9,2746
30,7034
30.1,10542
30.2,9124
30.3,26875
30.4,27770
30.5,13818
30.6,9493
30.7,3481
30.8,2168
30.9,1853
31,1616
31.1,1499
31.2,1460
31.3,1359
31.4,1338
31.5,1315
31.6,1369
31.7,1363
31.8,1409
31.9,1594
32,1723
32.1,1461
32.2,1392
32.3,1363
32.4,1340
32.5,1354
32.6,1310
32.7,1312
32.8,1360
32.9,1366
33,1343
33.1,1330
33.2,1346
33.3,1345
33.4,1353
33.5,1369
33.6,1360
33.7,1349
33.8,1360
33.9,1359
34,1390
34.1,1454
34.2,1440
34.3,1385
34.4,1363
34.5,1339
34.6,1347
34.7,1311
34.8,1352
34.9,1360
35,1336
35.1,1364
35.2,1365
35.3,1392
35.4,1462
35.5,1722
35.6,1927
35.7,2058
35.8,2238
35.9,2505
36,1963
36.1,1502
36.2,1376
36.3,1327
36.4,1331
36.5,1352
36.6,1337
36.7,1348
36.8,1376
36.9,1350
37,1371
37.1,1386
37.2,1376
37.3,1376
37.4,1342
37.5,1376
37.6,1381
37.7,1381
37.8,1340
37.9,1360
38,1350
38.1,1355
38.2,1335
38.3,1345
38.4,1345
38.5,1340
38.6,1344
38.7,1371
38.8,1347
38.9,1589
39,1676
39.1,1455
39.2,1348
39.3,1332
39.4,1316
39.5,1335
39.6,1328
39.7,1313
39.8,1328
39.9,1328
40,1308
40.1,1299
40.2,1318
40.3,1303
40.4,1303
40.5,1323
40.6,1322
40.7,1313
40.8,1346
40.9,1342
41,1351
41.1,1330
41.2,1314
41.3,1324
41.4,1288
41.5,1314
41.6,1308
41.7,1313
41.8,1323
41.9,1311
42,1308
42.1,1328
42.2,1315
42.3,1278
42.4,1272
42.5,1319
42.6,1308
42.7,1309
42.8,1329
42.9,1455
43,1644
43.1,1877
43.2,2427
43.3,5541
43.4,11973
43.5,10927
43.6,5109
43.7,2339
43.8,1670
43.9,1580
44,1531
44.1,1455
44.2,1399
44.3,1361
44.4,1288
44.5,1360
44.6,1452
44.7,1723
44.8,1841
44.9,1553
45,1350
45.1,1293
45.2,1323
45.3,1328
45.4,1262
45.5,1275
45.6,1293
45.7,1303
45.8,1300
45.9,1332
46,1310
46.1,1327
46.2,1294
46.3,1289
46.4,1255
46.5,1272
46.6,1284
46.7,1275
46.8,1289
46.9,1291
47,1331
47.1,1556
47.2,1476
47.3,1428
47.4,1564
47.5,1626
47.6,1716
47.7,1503
47.8,1399
47.9,1353
48,1385
48.1,1353
48.2,1378
48.3,1374
48.4,1561
48.5,1704
48.6,1663
48.7,1682
48.8,2077
48.9,2284
49,1912
49.1,1589
49.2,1432
49.3,1357
49.4,1344
49.5,1343
49.6,1395
49.7,1707
49.8,2079
49.9,1806
50,1467
50.1,1328
50.2,1320
50.3,1335
50.4,1331
50.5,1335
50.6,1314
50.7,1282
50.8,1298
50.9,1286
51,1309
51.1,1298
51.2,1292
51.3,1313
51.4,1303
51.5,1270
51.6,1244
51.7,1255
51.8,1261
51.9,1268
52,1261
52.1,1276
52.2,1272
52.3,1270
52.4,1274
52.5,1279
52.6,1267
52.7,1291
52.8,1297
52.9,1316
53,1384
53.1,1415
53.2,1533
53.3,1859
53.4,2865
53.5,6264
53.6,5644
53.7,6709
53.8,5219
53.9,5766
54,6010
54.1,6888
54.2,8530
54.3,5336
54.4,3678
54.5,2084
54.6,1680
54.7,1554
54.8,1419
54.9,1405
55,1405
55.1,1398
55.2,1374
55.3,1371
55.4,1360
55.5,1340
55.6,1314
55.7,1303
55.8,1245
55.9,1275
56,1246
56.1,1259
56.2,1284
56.3,1255
56.4,1255
56.5,1245
56.6,1262
56.7,1250
56.8,1250
56.9,1255
57,1283
57.1,1299
57.2,1283
57.3,1309
57.4,1303
57.5,1330
57.6,1360
57.7,1329
57.8,1330
57.9,1340
58,1345
58.1,1313
58.2,1347
58.3,1337
58.4,1308
58.5,1294
58.6,1284
58.7,1294
58.8,1308
58.9,1290
59,1299
59.1,1274
59.2,1316
59.3,1370
59.4,1535
59.5,1545
59.6,1427
59.7,1352
59.8,1291
59.9,1300
60,1269
60.1,1280
60.2,1235
60.3,1241
60.4,1246
60.5,1260
60.6,1263
60.7,1265
60.8,1226
60.9,1242
61,1207
61.1,1236
61.2,1237
61.3,1232
61.4,1236
61.5,1246
61.6,1207
61.7,1231
61.8,1226
61.9,1226
62,1277
62.1,1311
62.2,1363
62.3,1486
62.4,1979
62.5,2008
62.6,1976
62.7,1679
62.8,1790
62.9,2534
63,3633
63.1,3427
63.2,4389
63.3,2856
63.4,2630
63.5,2304
63.6,2387
63.7,2050
63.8,1778
63.9,1471
64,1401
64.1,1369
64.2,1301
64.3,1266
64.4,1266
64.5,1254
64.6,1249
64.7,1214
64.8,1201
64.9,1231
65,1237
65.1,1243
65.2,1219
65.3,1186
65.4,1206
65.5,1212
65.6,1254
65.7,1236
65.8,1279
65.9,1257
66,1266
66.1,1301
66.2,1356
66.3,1406
66.4,1395
66.5,1394
66.6,1419
66.7,1455
66.8,1553
66.9,1489
67,1524
67.1,1565
67.2,1553
67.3,1489
67.4,1403
67.5,1348
67.6,1319
67.7,1369
67.8,1386
67.9,1356
68,1350
68.1,1314
68.2,1324
68.3,1381
68.4,1360
68.5,1329
68.6,1309
68.7,1288
68.8,1272
68.9,1265
69,1247
69.1,1220
69.2,1238
69.3,1241
69.4,1264
69.5,1251
69.6,1223
69.7,1241
69.8,1260
69.9,1264
70,1255
70.1,1251
70.2,1273
70.3,1246
70.4,1273
70.5,1267
70.6,1295
70.7,1267
70.8,1342
70.9,1443
71,1741
71.1,2337
71.2,1985
71.3,2392
71.4,2984
71.5,3471
71.6,4869
71.7,4344
71.8,3899
71.9,3689
72,2524
72.1,2304
72.2,1723
72.3,1621
72.4,1508
72.5,1460
72.6,1347
72.7,1359
72.8,1352
72.9,1366
73,1294
73.1,1317
73.2,1284
73.3,1270
73.4,1218
73.5,1213
73.6,1262
73.7,1236
73.8,1231
73.9,1222
74,1265
74.1,1260
74.2,1250
74.3,1268
74.4,1250
74.5,1232
74.6,1245
74.7,1270
74.8,1236
74.9,1260
75,1319
75.1,1318
75.2,1391
75.3,1371
75.4,1371
75.5,1329
75.6,1329
75.7,1270
75.8,1300
75.9,1296
76,1303
76.1,1315
76.2,1335
76.3,1401
76.4,1473
76.5,1440
76.6,1433
76.7,1429
76.8,1433
76.9,1401
77,1350
77.1,1314
77.2,1283
77.3,1238
77.4,1249
77.5,1236
77.6,1215
77.7,1249
77.8,1235
77.9,1256
78,1241
78.1,1265
78.2,1231
78.3,1241
78.4,1255
78.5,1242
78.6,1289
78.7,1266
78.8,1278
78.9,1340
79,1448
79.1,1824
79.2,1763
79.3,1615
79.4,1687
79.5,1405
79.6,1341
79.7,1347
79.8,1390
79.9,1575
80,1691
80.1,1605
80.2,1774
80.3,1851
80.4,1691
80.5,1532
80.6,1557
80.7,1361
80.8,1303
80.9,1262
81,1282
81.1,1279
81.2,1275
81.3,1262
81.4,1270
81.5,1259
81.6,1235
81.7,1231
81.8,1225
81.9,1271
82,1250
82.1,1255
82.2,1237
82.3,1270
82.4,1270
82.5,1307
82.6,1346
82.7,1419
82.8,1477
82.9,1404
83,1401
83.1,1354
83.2,1307
83.3,1307
83.4,1317
83.5,1331
83.6,1350
83.7,1496
83.8,1599
83.9,1473
84,1466
84.1,1383
84.2,1301
84.3,1270
84.4,1246
84.5,1237
84.6,1264
84.7,1271
84.8,1260
84.9,1264
85,1254
85.1,1260
85.2,1246
85.3,1267
85.4,1247
85.5,1273
85.6,1236
85.7,1244
85.8,1252
85.9,1241
86,1272
86.1,1257
86.2,1304
86.3,1291
86.4,1309
86.5,1403
86.6,1558
86.7,1990
86.8,1939
86.9,1843
87,2201
87.1,2296
87.2,2404
87.3,2828
87.4,2594
87.5,2635
87.6,2868
87.7,2872
87.8,2442
87.9,2532
88,2895
88.1,3504
88.2,2607
88.3,2937
88.4,2818
88.5,2064
88.6,1875
88.7,1642
88.8,1413
88.9,1342
89,1309
89.1,1250
89.2,1256
89.3,1246
89.4,1265
89.5,1248
89.6,1262
89.7,1231
89.8,1267
89.9,1254
90,1288
90.1,1232
90.2,1299
90.3,1250
90.4,1294
90.5,1283
90.6,1289
90.7,1305
90.8,1293
90.9,1289
91,1305
91.1,1308
91.2,1307
91.3,1320
91.4,1323
91.5,1301
91.6,1291
91.7,1324
91.8,1319
91.9,1324
92,1297
92.1,1328
92.2,1283
92.3,1265
92.4,1258
92.5,1289
92.6,1265
92.7,1289
92.8,1265
92.9,1288
93,1283
93.1,1254
93.2,1255
93.3,1250
93.4,1255
93.5,1249
93.6,1255
93.7,1255
93.8,1284
93.9,1260
94,1264
94.1,1244
94.2,1260
94.3,1284
94.4,1297
94.5,1275
94.6,1241
94.7,1246
94.8,1270
94.9,1250
95,1297
95.1,1366
95.2,1483
95.3,1639
95.4,1539
95.5,1614
95.6,1647
95.7,1496
95.8,1464
95.9,1450
96,1372
96.1,1421
96.2,1507
96.3,1460
96.4,1392
96.5,1378
96.6,1341
96.7,1297
96.8,1303
96.9,1297
97,1290
97.1,1285
97.2,1287
97.3,1258
97.4,1289
97.5,1294
97.6,1287
97.7,1289
97.8,1289
97.9,1267
98,1289
98.1,1279
98.2,1308
98.3,1286
98.4,1292
98.5,1308
98.6,1346
98.7,1335
98.8,1335
98.9,1379
99,1324
99.1,1368
99.2,1357
99.3,1357
99.4,1385
99.5,1368
99.6,1368
99.7,1357
99.8,1385
99.9,1385
100,1346
100.1,1363
100.2,1377
100.3,1381
100.4,1363
100.5,1365
100.6,1357
100.7,1346
100.8,1350
100.9,1323
101,1311
101.1,1303
101.2,1312
101.3,1266
101.4,1252
101.5,1278
101.6,1302
101.7,1305
101.8,1305
101.9,1319
102,1319
102.1,1335
102.2,1355
102.3,1312
102.4,1379
102.5,1474
102.6,1608
102.7,1686
102.8,1612
102.9,1641
103,1760
103.1,1891
103.2,1990
103.3,2090
103.4,2246
103.5,2306
103.6,2448
103.7,2358
103.8,2268
103.9,2268
104,2071
104.1,1847
104.2,1757
104.3,1680
104.4,1542
104.5,1479
104.6,1443
104.7,1408
104.8,1373
104.9,1350
105,1340
105.1,1324
105.2,1321
105.3,1303
105.4,1309
105.5,1328
105.6,1327
105.7,1324
105.8,1317
105.9,1312
106,1329
106.1,1335
106.2,1319
106.3,1324
106.4,1335
106.5,1335
106.6,1312
106.7,1330
106.8,1347
106.9,1346
107,1319
107.1,1321
107.2,1368
107.3,1385
107.4,1401
107.5,1432
107.6,1457
107.7,1435
107.8,1418
107.9,1417
108,1373
108.1,1374
108.2,1357
108.3,1347
108.4,1341
108.5,1319
108.6,1309
108.7,1302
108.8,1335
108.9,1298
109,1287
109.1,1341
109.2,1338
109.3,1283
109.4,1303
109.5,1293
109.6,1289
109.7,1289
109.8,1308
109.9,1299
110,1304
110.1,1310
110.2,1345
110.3,1423
110.4,1476
110.5,1344
110.6,1365
110.7,1393
110.8,1406
110.9,1393
111,1377
111.1,1442
111.2,1517
111.3,1717
111.4,1746
111.5,1924
111.6,1841
111.7,1931
111.8,1855
111.9,1952
112,1723
112.1,1621
112.2,1583
112.3,1614
112.4,1651
112.5,1690
112.6,1531
112.7,1415
112.8,1434
112.9,1498
113,1421
113.1,1366
113.2,1347
113.3,1303
113.4,1298
113.5,1312
113.6,1338
113.7,1318
113.8,1318
113.9,1319
114,1314
114.1,1355
114.2,1314
114.3,1319
114.4,1357
114.5,1357
114.6,1368
114.7,1368
114.8,1368
114.9,1390
115,1385
115.1,1401
115.2,1402
115.3,1386
115.4,1383
115.5,1376
115.6,1384
115.7,1397
115.8,1383
115.9,1371
116,1381
116.1,1364
116.2,1364
116.3,1363
116.4,1371
116.5,1355
116.6,1386
116.7,1366
116.8,1376
116.9,1389
117,1390
117.1,1369
117.2,1374
117.3,1355
117.4,1350
117.5,1340
117.6,1340
117.7,1305
117.8,1348
117.9,1352
118,1306
118.1,1310
118.2,1294
118.3,1299
118.4,1332
118.5,1330
118.6,1331
118.7,1348
118.8,1413
118.9,1501
119,1408
119.1,1389
119.2,1425
119.3,1548
119.4,1641
119.5,1641
119.6,1536
119.7,1466
119.8,1489
119.9,1456
120,1512
120.1,1454
120.2,1436
120.3,1395
120.4,1396
120.5,1464
120.6,1523
120.7,1612
120.8,1605
120.9,1579
121,1579
121.1,1579
121.2,1658
121.3,1671
121.4,1638
121.5,1662
121.6,1710
121.7,1690
121.8,1625
121.9,1532
122,1546
122.1,1531
122.2,1520
122.3,1459
122.4,1409
122.5,1422
122.6,1398
122.7,1389
122.8,1360
122.9,1360
123,1329
123.1,1332
123.2,1360
123.3,1344
123.4,1345
123.5,1340
123.6,1355
123.7,1346
123.8,1344
123.9,1376
124,1344
124.1,1345
124.2,1361
124.3,1345
124.4,1350
124.5,1370
124.6,1345
124.7,1350
124.8,1337
124.9,1350
125,1319
125.1,1345
125.2,1350
125.3,1358
125.4,1356
125.5,1338
125.6,1397
125.7,1379
125.8,1376
125.9,1389
126,1371
126.1,1381
126.2,1364
126.3,1422
126.4,1355
126.5,1402
126.6,1344
126.7,1368
126.8,1335
126.9,1355
127,1337
127.1,1359
127.2,1324
127.3,1344
127.4,1355
127.5,1335
127.6,1402
127.7,1381
127.8,1371
127.9,1360
128,1352
128.1,1392
128.2,1448
128.3,1507
128.4,1548
128.5,1507
128.6,1466
128.7,1454
128.8,1471
128.9,1454
129,1507
129.1,1495
129.2,1524
129.3,1548
129.4,1548
129.5,1507
129.6,1460
129.7,1468
129.8,1448
129.9,1461
130,1489
130.1,1467
130.2,1436
130.3,1454
130.4,1483
130.5,1523
130.6,1583
130.7,1608
130.8,1583
130.9,1539
131,1515
131.1,1535
131.2,1608
131.3,1676
131.4,1719
131.5,1657
131.6,1552
131.7,1515
131.8,1515
131.9,1490
132,1477
132.1,1444
132.2,1446
132.3,1446
132.4,1429
132.5,1409
132.6,1412
132.7,1401
132.8,1412
132.9,1446
133,1407
133.1,1418
133.2,1407
133.3,1440
133.4,1427
133.5,1398
133.6,1418
133.7,1407
133.8,1440
133.9,1435
134,1436
134.1,1457
134.2,1479
134.3,1457
134.4,1457
134.5,1449
134.6,1452
134.7,1473
134.8,1484
134.9,1489
135,1495
135.1,1468
135.2,1462
135.3,1459
135.4,1479
135.5,1490
135.6,1490
135.7,1501
135.8,1488
135.9,1495
136,1484
136.1,1484
136.2,1484
136.3,1501
136.4,1526
136.5,1522
136.6,1523
136.7,1523
136.8,1440
136.9,1479
137,1467
137.1,1448
137.2,1422
137.3,1453
137.4,1434
137.5,1409
137.6,1388
137.7,1419
137.8,1416
137.9,1427
138,1371
138.1,1386
138.2,1422
138.3,1481
138.4,1561
138.5,1581
138.6,1545
138.7,1470
138.8,1428
138.9,1393
139,1428
139.1,1474
139.2,1483
139.3,1515
139.4,1474
139.5,1435
139.6,1468
139.7,1552
139.8,1677
139.9,1828
140,1756