File: data/xrd_icdd_PDF/00-064-0863 (PD3).csv
10,1880
10.1,1934
10.2,1846
10.3,1883
10.4,1866
10.5,1827
10.6,1837
10.7,1756
10.8,1786
10.9,1820
11,1688
11.1,1667
11.2,1698
11.3,1635
11.4,1658
11.5,1631
11.6,1610
11.7,1652
11.8,1606
11.9,1623
12,1579
12.1,1565
12.2,1560
12.3,1545
12.4,1525
12.5,1520
12.6,1511
12.7,1541
12.8,1494
12.9,1580
13,1530
13.1,1521
13.2,1475
13.3,1503
13.4,1454
13.5,1431
13.6,1461
13.7,1410
13.8,1371
13.9,1381
14,1417
14.1,1424
14.2,1333
14.3,1351
14.4,1334
14.5,1329
14.6,1341
14.7,1360
14.8,1376
14.9,1310
15,1386
15.1,1348
15.2,1321
15.3,1384
15.4,1341
15.5,1322
15.6,1284
15.7,1319
15.8,1325
15.9,1270
16,1350
16.1,1326
16.2,1288
16.3,1244
16.4,1371
16.5,1354
16.6,1375
16.7,1457
16.8,1348
16.9,1378
17,1459
17.1,1419
17.2,1360
17.3,1395
17.4,1336
17.5,1373
17.6,1385
17.7,1349
17.8,1335
17.9,1392
18,1412
18.1,1395
18.2,1427
18.3,1429
18.4,1382
18.5,1362
18.6,1501
18.7,1415
18.8,1440
18.9,1408
19,1424
19.1,1427
19.2,1352
19.3,1400
19.4,1474
19.5,1536
19.6,1432
19.7,1412
19.8,1380
19.9,1472
20,1440
20.1,1432
20.2,1407
20.3,1485
20.4,1504
20.5,1482
20.6,1499
20.7,1455
20.8,1522
20.9,1432
21,1483
21.1,1446
21.2,1548
21.3,1464
21.4,1523
21.5,1542
21.6,1507
21.7,1545
21.8,1551
21.9,1555
22,1582
22.1,1642
22.2,1630
22.3,1663
22.4,1629
22.5,1673
22.6,1736
22.7,1761
22.8,1826
22.9,1916
23,1976
23.1,1988
23.2,2178
23.3,2223
23.4,2247
23.5,2430
23.6,2593
23.7,2789
23.8,3034
23.9,3219
24,3569
24.1,4000
24.2,4529
24.3,5521
24.4,6919
24.5,9425
24.6,13481
24.7,18788
24.8,25259
24.9,32649
25,39628
25.1,45941
25.2,49450
25.3,50093
25.4,48121
25.5,43103
25.6,36356
25.7,28788
25.8,21829
25.9,16144
26,11399
26.1,8471
26.2,6251
26.3,5159
26.4,4451
26.5,3755
26.6,3347
26.7,3082
26.8,2703
26.9,2544
27,2296
27.1,2225
27.2,2004
27.3,1884
27.4,1735
27.5,1740
27.6,1631
27.7,1568
27.8,1472
27.9,1470
28,1400
28.1,1372
28.2,1272
28.3,1221
28.4,1333
28.5,1242
28.6,1205
28.7,1248
28.8,1099
28.9,1154
29,1137
29.1,1039
29.2,1060
29.3,1078
29.4,1092
29.5,975
29.6,1061
29.7,987
29.8,1059
29.9,1008
30,1057
30.1,964
30.2,946
30.3,1002
30.4,983
30.5,975
30.6,1016
30.7,1029
30.8,975
30.9,945
31,988
31.1,953
31.2,958
31.3,880
31.4,947
31.5,901
31.6,843
31.7,822
31.8,812
31.9,884
32,813
32.1,819
32.2,840
32.3,876
32.4,765
32.5,869
32.6,833
32.7,835
32.8,855
32.9,822
33,849
33.1,808
33.2,851
33.3,801
33.4,782
33.5,792
33.6,855
33.7,845
33.8,800
33.9,807
34,841
34.1,839
34.2,827
34.3,807
34.4,779
34.5,832
34.6,858
34.7,895
34.8,892
34.9,937
35,944
35.1,947
35.2,898
35.3,940
35.4,1104
35.5,1112
35.6,1104
35.7,1147
35.8,1271
35.9,1330
36,1412
36.1,1530
36.2,1728
36.3,1912
36.4,2308
36.5,2659
36.6,3185
36.7,3732
36.8,4213
36.9,4484
37,4840
37.1,5253
37.2,5468
37.3,6226
37.4,7087
37.5,8871
37.6,10837
37.7,13059
37.8,14335
37.9,13977
38,12724
38.1,10841
38.2,9001
38.3,7723
38.4,6772
38.5,6030
38.6,5391
38.7,4945
38.8,4415
38.9,3797
39,3165
39.1,2582
39.2,2299
39.3,2055
39.4,1726
39.5,1542
39.6,1367
39.7,1321
39.8,1195
39.9,1223
40,1170
40.1,1118
40.2,1032
40.3,949
40.4,925
40.5,983
40.6,891
40.7,920
40.8,825
40.9,861
41,829
41.1,805
41.2,821
41.3,805
41.4,778
41.5,758
41.6,825
41.7,738
41.8,788
41.9,750
42,778
42.1,779
42.2,820
42.3,776
42.4,786
42.5,780
42.6,751
42.7,732
42.8,770
42.9,782
43,785
43.1,720
43.2,755
43.3,766
43.4,772
43.5,765
43.6,706
43.7,776
43.8,786
43.9,787
44,745
44.1,816
44.2,735
44.3,858
44.4,832
44.5,846
44.6,786
44.7,801
44.8,741
44.9,821
45,815
45.1,855
45.2,880
45.3,875
45.4,947
45.5,966
45.6,969
45.7,977
45.8,1026
45.9,1075
46,1095
46.1,1177
46.2,1234
46.3,1370
46.4,1419
46.5,1439
46.6,1444
46.7,1756
46.8,1941
46.9,2033
47,2433
47.1,2923
47.2,3803
47.3,4826
47.4,6365
47.5,7876
47.6,9899
47.7,11522
47.8,12958
47.9,13883
48,14120
48.1,13816
48.2,12947
48.3,11709
48.4,9919
48.5,8132
48.6,6616
48.7,5133
48.8,3854
48.9,3090
49,2538
49.1,2044
49.2,1799
49.3,1608
49.4,1463
49.5,1415
49.6,1264
49.7,1256
49.8,1153
49.9,1149
50,1103
50.1,1107
50.2,1032
50.3,998
50.4,971
50.5,960
50.6,931
50.7,963
50.8,909
50.9,917
51,841
51.1,907
51.2,886
51.3,964
51.4,948
51.5,959
51.6,945
51.7,1026
51.8,1014
51.9,1013
52,1046
52.1,1104
52.2,1150
52.3,1207
52.4,1228
52.5,1255
52.6,1358
52.7,1522
52.8,1660
52.9,1878
53,2095
53.1,2412
53.2,2910
53.3,3449
53.4,4546
53.5,5768
53.6,7302
53.7,8872
53.8,10394
53.9,11356
54,11868
54.1,11174
54.2,10386
54.3,9610
54.4,8924
54.5,8508
54.6,8663
54.7,8983
54.8,9444
54.9,9555
55,9834
55.1,9623
55.2,9136
55.3,8320
55.4,7202
55.5,6224
55.6,5061
55.7,4197
55.8,3189
55.9,2687
56,2336
56.1,2011
56.2,1758
56.3,1551
56.4,1407
56.5,1303
56.6,1246
56.7,1182
56.8,1105
56.9,1009
57,1017
57.1,954
57.2,928
57.3,855
57.4,854
57.5,901
57.6,896
57.7,773
57.8,779
57.9,769
58,757
58.1,753
58.2,768
58.3,707
58.4,763
58.5,711
58.6,714
58.7,693
58.8,704
58.9,697
59,663
59.1,694
59.2,694
59.3,679
59.4,712
59.5,715
59.6,671
59.7,753
59.8,748
59.9,749
60,707
60.1,799
60.2,738
60.3,821
60.4,817
60.5,828
60.6,893
60.7,945
60.8,915
60.9,982
61,976
61.1,1199
61.2,1199
61.3,1383
61.4,1545
61.5,1744
61.6,2128
61.7,2314
61.8,2819
61.9,3348
62,3881
62.1,4428
62.2,5293
62.3,6062
62.4,6874
62.5,7496
62.6,7854
62.7,8165
62.8,7843
62.9,7297
63,6713
63.1,5693
63.2,4774
63.3,3966
63.4,3314
63.5,2596
63.6,2154
63.7,1789
63.8,1595
63.9,1465
64,1310
64.1,1184
64.2,1170
64.3,1004
64.4,1003
64.5,907
64.6,869
64.7,788
64.8,879
64.9,812
65,743
65.1,728
65.2,724
65.3,764
65.4,709
65.5,714
65.6,674
65.7,605
65.8,631
65.9,634
66,687
66.1,694
66.2,695
66.3,653
66.4,698
66.5,709
66.6,726
66.7,678
66.8,707
66.9,684
67,755
67.1,715
67.2,754
67.3,822
67.4,786
67.5,884
67.6,884
67.7,956
67.8,953
67.9,1144
68,1255
68.1,1464
68.2,1674
68.3,2007
68.4,2388
68.5,2829
68.6,3202
68.7,3495
68.8,3713
68.9,3674
69,3674
69.1,3489
69.2,3189
69.3,2898
69.4,2638
69.5,2515
69.6,2650
69.7,2755
69.8,2797
69.9,3133
70,3358
70.1,3511
70.2,3457
70.3,3660
70.4,3395
70.5,3377
70.6,2940
70.7,2608
70.8,2220
70.9,1988
71,1735
71.1,1512
71.2,1249
71.3,1156
71.4,1078
71.5,1007
71.6,903
71.7,857
71.8,844
71.9,854
72,829
72.1,748
72.2,729
72.3,758
72.4,752
72.5,740
72.6,745
72.7,765
72.8,750
72.9,779
73,792
73.1,838
73.2,848
73.3,906
73.4,918
73.5,996
73.6,1030
73.7,1150
73.8,1173
73.9,1341
74,1410
74.1,1675
74.2,1854
74.3,2034
74.4,2463
74.5,2705
74.6,3227
74.7,3782
74.8,4267
74.9,4674
75,5274
75.1,5355
75.2,5346
75.3,5153
75.4,4823
75.5,4535
75.6,4238
75.7,3568
75.8,3388
75.9,2991
76,2740
76.1,2447
76.2,2257
76.3,2112
76.4,1920
76.5,1844
76.6,1600
76.7,1482
76.8,1262
76.9,1150
77,999
77.1,967
77.2,901
77.3,827
77.4,764
77.5,715
77.6,676
77.7,670
77.8,670
77.9,654
78,653
78.1,620
78.2,670
78.3,625
78.4,599
78.5,583
78.6,573
78.7,582
78.8,555
78.9,572
79,576
79.1,561
79.2,610
79.3,514
79.4,576
79.5,566
79.6,583
79.7,575
79.8,609
79.9,585
80,623
80.1,656
80.2,618
80.3,652
80.4,705
80.5,769
80.6,832
80.7,787
80.8,893
80.9,870
81,949
81.1,939
81.2,927
81.3,949
81.4,945
81.5,1037
81.6,1136
81.7,1251
81.8,1326
81.9,1548
82,1811
82.1,2052
82.2,2265
82.3,2625
82.4,2908
82.5,3082
82.6,3276
82.7,3396
82.8,3514
82.9,3467
83,3168
83.1,3076
83.2,2746
83.3,2574
83.4,2179
83.5,2056
83.6,1740
83.7,1599
83.8,1404
83.9,1216
84,1040
84.1,932
84.2,833
84.3,800
84.4,745
84.5,735
84.6,632
84.7,660
84.8,615
84.9,554
85,558
85.1,534
85.2,533
85.3,533
85.4,529
85.5,533
85.6,518
85.7,507
85.8,514
85.9,484
86,492
86.1,433
86.2,483
86.3,474
86.4,473
86.5,476
86.6,423
86.7,391
86.8,413
86.9,448
87,436
87.1,395
87.2,390
87.3,433
87.4,478
87.5,439
87.6,386
87.7,392
87.8,390
87.9,448
88,437
88.1,391
88.2,412
88.3,390
88.4,372
88.5,414
88.6,401
88.7,408
88.8,422
88.9,388
89,413
89.1,360
89.2,396
89.3,391
89.4,403
89.5,412
89.6,417
89.7,354
89.8,383
89.9,377
90,379
90.1,455
90.2,392
90.3,379
90.4,434
90.5,399
90.6,444
90.7,401
90.8,407
90.9,412
91,384
91.1,435
91.2,404
91.3,414
91.4,457
91.5,461
91.6,441
91.7,456
91.8,457
91.9,497
92,477
92.1,526
92.2,508
92.3,542
92.4,505
92.5,537
92.6,619
92.7,681
92.8,645
92.9,764
93,771
93.1,867
93.2,901
93.3,988
93.4,1026
93.5,1138
93.6,1194
93.7,1356
93.8,1380
93.9,1446
94,1591
94.1,1698
94.2,1753
94.3,1761
94.4,1851
94.5,1936
94.6,1877
94.7,2048
94.8,1951
94.9,1989
95,1883
95.1,1915
95.2,1769
95.3,1689
95.4,1625
95.5,1543
95.6,1427
95.7,1271
95.8,1160
95.9,1071
96,990
96.1,938
96.2,815
96.3,788
96.4,756
96.5,686
96.6,697
96.7,751
96.8,635
96.9,639
97,596
97.1,643
97.2,616
97.3,615
97.4,623
97.5,648
97.6,745
97.7,735
97.8,795
97.9,827
98,921
98.1,974
98.2,1074
98.3,1208
98.4,1231
98.5,1286
98.6,1331
98.7,1315
98.8,1264
98.9,1177
99,1147
99.1,1081
99.2,1052
99.3,1022
99.4,1019
99.5,1032
99.6,1085
99.7,1059
99.8,1113
99.9,1110
100,1079
100.1,1098
100.2,1151
100.3,1101
100.4,1037
100.5,1073
100.6,950
100.7,937
100.8,957
100.9,862
101,992
101.1,928
101.2,888
101.3,887
101.4,875
101.5,904
101.6,835
101.7,820
101.8,752
101.9,686
102,671
102.1,630
102.2,604
102.3,628
102.4,583
102.5,573
102.6,563
102.7,561
102.8,535
102.9,532
103,504
103.1,509
103.2,485
103.3,507
103.4,488
103.5,461
103.6,480
103.7,472
103.8,500
103.9,537
104,496
104.1,518
104.2,552
104.3,486
104.4,479
104.5,514
104.6,512
104.7,517
104.8,517
104.9,530
105,536
105.1,548
105.2,548
105.3,573
105.4,553
105.5,580
105.6,561
105.7,588
105.8,617
105.9,613
106,692
106.1,713
106.2,690
106.3,742
106.4,780
106.5,855
106.6,895
106.7,1030
106.8,1087
106.9,1228
107,1377
107.1,1471
107.2,1604
107.3,1721
107.4,1761
107.5,1787
107.6,1876
107.7,1922
107.8,1954
107.9,1828
108,1824
108.1,1751
108.2,1719
108.3,1693
108.4,1590
108.5,1561
108.6,1495
108.7,1580
108.8,1430
108.9,1547
109,1435
109.1,1377
109.2,1327
109.3,1445
109.4,1314
109.5,1260
109.6,1160
109.7,1105
109.8,1024
109.9,1054
110,998
110.1,948
110.2,888
110.3,844
110.4,801
110.5,874
110.6,755
110.7,717
110.8,700
110.9,737
111,745
111.1,687
111.2,725
111.3,699
111.4,714
111.5,764
111.6,809
111.7,766
111.8,764
111.9,863
112,859
112.1,949
112.2,935
112.3,958
112.4,969
112.5,1017
112.6,1065
112.7,1128
112.8,1143
112.9,1247
113,1383
113.1,1465
113.2,1492
113.3,1615
113.4,1652
113.5,1848
113.6,1895
113.7,2109
113.8,2124
113.9,2250
114,2268
114.1,2282
114.2,2346
114.3,2299
114.4,2298
114.5,2326
114.6,2223
114.7,2263
114.8,2242
114.9,2043
115,1930
115.1,1899
115.2,1890
115.3,1734
115.4,1700
115.5,1649
115.6,1542
115.7,1471
115.8,1369
115.9,1359
116,1277
116.1,1256
116.2,1134
116.3,1038
116.4,1025
116.5,1056
116.6,1025
116.7,1098
116.8,1047
116.9,1100
117,1073
117.1,1093
117.2,1209
117.3,1236
117.4,1250
117.5,1270
117.6,1301
117.7,1484
117.8,1609
117.9,1709
118,1921
118.1,2074
118.2,2244
118.3,2424
118.4,2682
118.5,2731
118.6,2931
118.7,2937
118.8,2949
118.9,2993
119,2953
119.1,2867
119.2,2714
119.3,2647
119.4,2553
119.5,2331
119.6,2306
119.7,2221
119.8,2069
119.9,2031
120,1947
120.1,1859
120.2,1861
120.3,1732
120.4,1753
120.5,1700
120.6,1790
120.7,1669
120.8,1712
120.9,1678
121,1619
121.1,1727
121.2,1743
121.3,1714
121.4,1768
121.5,1824
121.6,1822
121.7,1932
121.8,1950
121.9,1944
122,1986
122.1,2148
122.2,2067
122.3,2108
122.4,2189
122.5,2081
122.6,2081
122.7,2002
122.8,1924
122.9,1923
123,1847
123.1,1754
123.2,1770
123.3,1584
123.4,1604
123.5,1453
123.6,1424
123.7,1395
123.8,1292
123.9,1255
124,1164
124.1,1125
124.2,1081
124.3,1027
124.4,925
124.5,926
124.6,954
124.7,920
124.8,887
124.9,851
125,865
125.1,930
125.2,870
125.3,818
125.4,838
125.5,821
125.6,802
125.7,795
125.8,840
125.9,845
126,808
126.1,795
126.2,759
126.3,776
126.4,797
126.5,810
126.6,841
126.7,770
126.8,822
126.9,763
127,801
127.1,763
127.2,787
127.3,869
127.4,766
127.5,825
127.6,805
127.7,784
127.8,823
127.9,842
128,815
128.1,806
128.2,800
128.3,829
128.4,771
128.5,865
128.6,880
128.7,895
128.8,896
128.9,915
129,909
129.1,915
129.2,1008
129.3,1004
129.4,980
129.5,1024
129.6,1085
129.7,1139
129.8,1226
129.9,1248
130,1261
130.1,1392
130.2,1515
130.3,1460
130.4,1575
130.5,1519
130.6,1628
130.7,1665
130.8,1753
130.9,1724
131,1729
131.1,1734
131.2,1827
131.3,1782
131.4,1856
131.5,1732
131.6,1838
131.7,1807
131.8,1669
131.9,1713
132,1724
132.1,1648
132.2,1540
132.3,1564
132.4,1468
132.5,1497
132.6,1358
132.7,1341
132.8,1301
132.9,1299
133,1259
133.1,1194
133.2,1142
133.3,1156
133.4,1164
133.5,1087
133.6,1091
133.7,1058
133.8,1011
133.9,1041
134,1019
134.1,994
134.2,1012
134.3,961
134.4,1025
134.5,972
134.6,955
134.7,969
134.8,957
134.9,1016
135,1019
135.1,1028
135.2,1104
135.3,1110
135.4,1141
135.5,1184
135.6,1190
135.7,1175
135.8,1235
135.9,1281
136,1368
136.1,1358
136.2,1429
136.3,1385
136.4,1532
136.5,1602
136.6,1565
136.7,1660
136.8,1672
136.9,1716
137,1748
137.1,1857
137.2,1794
137.3,1900
137.4,1880
137.5,1953
137.6,1845
137.7,1895
137.8,1891
137.9,1776
138,1843
138.1,1802
138.2,1755
138.3,1770
138.4,1689
138.5,1660
138.6,1519
138.7,1528
138.8,1494
138.9,1414
139,1358
139.1,1290
139.2,1206
139.3,1325
139.4,1263
139.5,1229
139.6,1122
139.7,1127
139.8,1069
139.9,1052
140,1085