File: data/xrd_icdd_PDF/00-059-0842 (PD3).csv
5,137
5.1,146
5.2,159
5.3,128
5.4,108
5.5,119
5.6,106
5.7,119
5.8,174
5.9,125
6,130
6.1,112
6.2,121
6.3,149
6.4,104
6.5,112
6.6,164
6.7,169
6.8,144
6.9,112
7,146
7.1,154
7.2,156
7.3,110
7.4,119
7.5,104
7.6,121
7.7,149
7.8,132
7.9,137
8,108
8.1,174
8.2,132
8.3,102
8.4,128
8.5,146
8.6,128
8.7,112
8.8,166
8.9,130
9,166
9.1,112
9.2,159
9.3,142
9.4,161
9.5,169
9.6,112
9.7,125
9.8,144
9.9,149
10,151
10.1,151
10.2,135
10.3,151
10.4,102
10.5,142
10.6,139
10.7,92
10.8,132
10.9,130
11,100
11.1,128
11.2,102
11.3,110
11.4,128
11.5,151
11.6,100
11.7,137
11.8,161
11.9,156
12,139
12.1,106
12.2,117
12.3,85
12.4,142
12.5,119
12.6,104
12.7,156
12.8,166
12.9,144
13,172
13.1,164
13.2,102
13.3,161
13.4,164
13.5,137
13.6,125
13.7,144
13.8,128
13.9,166
14,253
14.1,266
14.2,185
14.3,172
14.4,190
14.5,169
14.6,156
14.7,222
14.8,400
14.9,666
15,250
15.1,185
15.2,169
15.3,177
15.4,169
15.5,121
15.6,142
15.7,172
15.8,137
15.9,166
16,182
16.1,135
16.2,174
16.3,159
16.4,149
16.5,164
16.6,159
16.7,166
16.8,177
16.9,144
17,156
17.1,164
17.2,174
17.3,139
17.4,142
17.5,169
17.6,177
17.7,180
17.8,182
17.9,159
18,144
18.1,174
18.2,177
18.3,190
18.4,174
18.5,174
18.6,182
18.7,161
18.8,193
18.9,193
19,256
19.1,497
19.2,313
19.3,182
19.4,177
19.5,154
19.6,149
19.7,156
19.8,174
19.9,169
20,146
20.1,169
20.2,266
20.3,282
20.4,511
20.5,1136
20.6,493
20.7,190
20.8,137
20.9,114
21,110
21.1,146
21.2,159
21.3,135
21.4,130
21.5,104
21.6,119
21.7,137
21.8,142
21.9,130
22,108
22.1,130
22.2,94
22.3,137
22.4,112
22.5,117
22.6,125
22.7,119
22.8,92
22.9,154
23,166
23.1,185
23.2,132
23.3,146
23.4,108
23.5,125
23.6,119
23.7,130
23.8,128
23.9,137
24,112
24.1,92
24.2,88
24.3,106
24.4,71
24.5,112
24.6,106
24.7,123
24.8,108
24.9,62
25,71
25.1,112
25.2,83
25.3,67
25.4,144
25.5,112
25.6,137
25.7,156
25.8,106
25.9,92
26,90
26.1,76
26.2,108
26.3,119
26.4,125
26.5,259
26.6,424
26.7,1076
26.8,1296
26.9,361
27,199
27.1,125
27.2,104
27.3,154
27.4,182
27.5,117
27.6,154
27.7,110
27.8,123
27.9,110
28,177
28.1,219
28.2,240
28.3,412
28.4,795
28.5,1980
28.6,5715
28.7,3136
28.8,620
28.9,353
29,231
29.1,222
29.2,289
29.3,552
29.4,650
29.5,1384
29.6,2381
29.7,2237
29.8,1505
29.9,681
30,529
30.1,266
30.2,182
30.3,119
30.4,108
30.5,104
30.6,139
30.7,130
30.8,108
30.9,96
31,128
31.1,83
31.2,106
31.3,81
31.4,98
31.5,90
31.6,90
31.7,121
31.8,159
31.9,262
32,571
32.1,1927
32.2,1681
32.3,511
32.4,543
32.5,428
32.6,219
32.7,106
32.8,123
32.9,151
33,137
33.1,180
33.2,320
33.3,449
33.4,237
33.5,130
33.6,119
33.7,128
33.8,119
33.9,121
34,166
34.1,357
34.2,1037
34.3,949
34.4,353
34.5,180
34.6,117
34.7,121
34.8,92
34.9,117
35,180
35.1,159
35.2,83
35.3,119
35.4,90
35.5,202
35.6,424
35.7,369
35.8,350
35.9,202
36,108
36.1,121
36.2,94
36.3,112
36.4,219
36.5,225
36.6,161
36.7,161
36.8,119
36.9,123
37,102
37.1,114
37.2,112
37.3,119
37.4,149
37.5,219
37.6,190
37.7,121
37.8,112
37.9,104
38,79
38.1,96
38.2,71
38.3,85
38.4,104
38.5,207
38.6,552
38.7,543
38.8,424
38.9,240
39,132
39.1,112
39.2,77
39.3,146
39.4,320
39.5,231
39.6,125
39.7,96
39.8,106
39.9,151
40,98
40.1,81
40.2,74
40.3,90
40.4,112
40.5,90
40.6,139
40.7,66
40.8,117
40.9,85
41,112
41.1,108
41.2,81
41.3,121
41.4,146
41.5,310
41.6,718
41.7,1197
41.8,784
41.9,724
42,605
42.1,388
42.2,240
42.3,306
42.4,520
42.5,847
42.6,1274
42.7,708
42.8,246
42.9,185
43,424
43.1,484
43.2,272
43.3,108
43.4,90
43.5,77
43.6,104
43.7,132
43.8,110
43.9,114
44,117
44.1,125
44.2,188
44.3,240
44.4,353
44.5,237
44.6,117
44.7,117
44.8,119
44.9,130
45,303
45.1,795
45.2,529
45.3,246
45.4,222
45.5,286
45.6,967
45.7,1218
45.8,924
45.9,353
46,202
46.1,246
46.2,296
46.3,207
46.4,94
46.5,96
46.6,110
46.7,53
46.8,100
46.9,88
47,128
47.1,159
47.2,306
47.3,292
47.4,237
47.5,292
47.6,524
47.7,346
47.8,299
47.9,266
48,660
48.1,595
48.2,420
48.3,177
48.4,123
48.5,139
48.6,67
48.7,110
48.8,59
48.9,130
49,182
49.1,149
49.2,151
49.3,106
49.4,106
49.5,144
49.6,437
49.7,480
49.8,353
49.9,196
50,313
50.1,353
50.2,237
50.3,102
50.4,88
50.5,83
50.6,79
50.7,86
50.8,62
50.9,56
51,59
51.1,66
51.2,83
51.3,56
51.4,88
51.5,71
51.6,117
51.7,161
51.8,412
51.9,303
52,240
52.1,119
52.2,90
52.3,67
52.4,137
52.5,130
52.6,342
52.7,650
52.8,511
52.9,380
53,202
53.1,213
53.2,207
53.3,237
53.4,142
53.5,130
53.6,92
53.7,114
53.8,69
53.9,76
54,94
54.1,88
54.2,164
54.3,272
54.4,441
54.5,829
54.6,676
54.7,420
54.8,188
54.9,154
55,182
55.1,361
55.2,256
55.3,159
55.4,100
55.5,114
55.6,96
55.7,250
55.8,396
55.9,497
56,266
56.1,234
56.2,123
56.3,156
56.4,117
56.5,112
56.6,96
56.7,64
56.8,94
56.9,161
57,286
57.1,625
57.2,767
57.3,1225
57.4,713
57.5,502
57.6,246
57.7,185
57.8,177
57.9,234
58,342
58.1,253
58.2,412
58.3,458
58.4,342
58.5,216
58.6,156
58.7,139
58.8,69
58.9,149
59,128
59.1,169
59.2,331
59.3,289
59.4,216
59.5,202
59.6,159
59.7,154
59.8,144
59.9,185
60,303
60.1,299
60.2,250
60.3,149
60.4,146
60.5,404
60.6,313
60.7,376
60.8,441
60.9,317
61,320
61.1,164
61.2,172
61.3,182
61.4,139
61.5,228
61.6,424
61.7,299
61.8,292
61.9,310
62,299
62.1,506
62.2,342
62.3,380
62.4,202
62.5,110
62.6,94
62.7,98
62.8,81
62.9,62
63,56
63.1,112
63.2,108
63.3,85
63.4,174
63.5,256
63.6,199
63.7,169
63.8,125
63.9,71
64,154
64.1,185
64.2,488
64.3,313
64.4,331
64.5,207
64.6,172
64.7,137
64.8,79
64.9,42
65,98
65.1,92
65.2,76
65.3,137
65.4,53
65.5,112
65.6,188
65.7,199
65.8,207
65.9,210
66,130
66.1,154
66.2,121
66.3,104
66.4,119
66.5,71
66.6,83
66.7,100
66.8,110
66.9,104
67,59
67.1,86
67.2,225
67.3,130
67.4,144
67.5,154
67.6,190
67.7,237
67.8,185
67.9,259
68,286
68.1,213
68.2,237
68.3,128
68.4,222
68.5,328
68.6,190
68.7,213
68.8,125
68.9,50
69,56
69.1,76
69.2,128
69.3,177
69.4,135
69.5,177
69.6,144
69.7,231
69.8,458
69.9,234
70,292
70.1,172
70.2,234
70.3,428
70.4,237
70.5,250
70.6,142
70.7,135
70.8,98
70.9,104
71,100
71.1,62
71.2,98
71.3,146
71.4,237
71.5,303
71.6,190
71.7,225
71.8,193
71.9,262
72,216
72.1,204
72.2,161
72.3,185
72.4,154
72.5,204
72.6,433
72.7,289
72.8,328
72.9,202
73,237
73.1,177
73.2,190
73.3,172
73.4,154
73.5,137
73.6,144
73.7,135
73.8,269
73.9,339
74,471
74.1,320
74.2,282
74.3,222
74.4,164
74.5,142
74.6,149
74.7,137
74.8,256
74.9,149
75,135
75.1,182
75.2,132
75.3,112
75.4,117
75.5,149
75.6,112
75.7,190
75.8,166
75.9,161
76,177
76.1,172
76.2,149
76.3,106
76.4,132
76.5,151
76.6,125
76.7,117
76.8,114
76.9,135
77,154
77.1,114
77.2,154
77.3,177
77.4,182
77.5,139
77.6,207
77.7,210
77.8,193
77.9,266
78,202
78.1,299
78.2,324
78.3,228
78.4,225
78.5,216
78.6,246
78.7,320
78.8,177
78.9,243
79,180
79.1,106
79.2,98
79.3,98
79.4,151
79.5,213
79.6,146
79.7,188
79.8,234
79.9,202
80,182
80.1,188
80.2,185
80.3,164
80.4,144
80.5,207
80.6,182
80.7,177
80.8,204
80.9,125
81,146
81.1,174
81.2,188
81.3,204
81.4,174
81.5,182
81.6,149
81.7,139
81.8,180
81.9,222
82,177
82.1,182
82.2,159
82.3,185
82.4,156
82.5,135
82.6,135
82.7,125
82.8,130
82.9,151
83,149
83.1,276
83.2,299
83.3,219
83.4,328
83.5,437
83.6,357
83.7,357
83.8,313
83.9,222
84,237
84.1,213
84.2,310
84.3,259
84.4,193
84.5,169
84.6,154
84.7,130
84.8,137
84.9,119
85,144
85.1,193
85.2,188
85.3,130
85.4,154
85.5,102
85.6,154
85.7,246
85.8,246
85.9,219
86,196
86.1,144
86.2,196
86.3,172
86.4,188
86.5,104
86.6,128
86.7,164
86.8,108
86.9,79
87,76
87.1,130
87.2,128
87.3,139
87.4,216
87.5,259
87.6,164
87.7,185
87.8,216
87.9,121
88,108
88.1,132
88.2,94
88.3,125
88.4,100
88.5,137
88.6,119
88.7,121
88.8,161
88.9,130
89,85
89.1,121
89.2,135
89.3,137
89.4,182
89.5,216
89.6,144
89.7,121
89.8,159
89.9,225
90,137
90.1,98
90.2,119
90.3,117
90.4,161
90.5,219
90.6,104
90.7,159
90.8,169
90.9,125
91,90
91.1,108
91.2,149
91.3,193
91.4,262
91.5,199
91.6,156
91.7,156
91.8,128
91.9,90
92,88
92.1,151
92.2,121
92.3,144
92.4,161
92.5,110
92.6,123
92.7,151
92.8,102
92.9,130
93,161
93.1,231
93.2,256
93.3,231
93.4,259
93.5,269
93.6,266
93.7,234
93.8,276
93.9,188
94,135
94.1,159
94.2,151
94.3,169
94.4,159
94.5,85
94.6,92
94.7,177
94.8,135
94.9,125
95,112
95.1,98
95.2,154
95.3,149
95.4,222
95.5,317
95.6,204
95.7,234
95.8,237
95.9,154
96,128
96.1,172
96.2,114
96.3,85
96.4,130
96.5,135
96.6,199
96.7,213
96.8,164
96.9,180
97,161
97.1,172
97.2,164
97.3,117
97.4,110
97.5,156
97.6,193
97.7,144
97.8,164
97.9,156
98,135
98.1,182
98.2,188
98.3,154
98.4,144
98.5,81
98.6,125
98.7,94
98.8,90
98.9,161
99,177
99.1,121
99.2,159
99.3,213
99.4,219
99.5,182
99.6,182
99.7,202
99.8,142
99.9,174
100,151
100.1,234
100.2,154
100.3,156
100.4,128
100.5,169
100.6,130
100.7,112
100.8,142
100.9,112
101,137
101.1,151
101.2,154
101.3,104
101.4,128
101.5,144
101.6,149
101.7,149
101.8,123
101.9,128
102,130
102.1,137
102.2,86
102.3,125
102.4,159
102.5,169
102.6,108
102.7,114
102.8,146
102.9,119
103,164
103.1,159
103.2,104
103.3,121
103.4,139
103.5,94
103.6,106
103.7,132
103.8,121
103.9,108
104,94
104.1,119
104.2,90
104.3,139
104.4,177
104.5,117
104.6,104
104.7,102
104.8,149
104.9,137
105,139
105.1,130
105.2,142
105.3,125
105.4,128
105.5,119
105.6,79
105.7,130
105.8,121
105.9,106
106,61
106.1,128
106.2,79
106.3,86
106.4,96
106.5,125
106.6,128
106.7,193
106.8,156
106.9,128
107,132
107.1,137
107.2,161
107.3,132
107.4,66
107.5,96
107.6,132
107.7,90
107.8,94
107.9,121
108,90
108.1,94
108.2,161
108.3,121
108.4,144
108.5,86
108.6,94
108.7,139
108.8,177
108.9,106
109,96
109.1,128
109.2,119
109.3,146
109.4,102
109.5,85
109.6,130
109.7,114
109.8,79
109.9,66
110,137
110.1,117
110.2,106
110.3,94
110.4,85
110.5,137
110.6,96
110.7,130
110.8,166
110.9,144
111,102
111.1,121
111.2,144
111.3,130
111.4,83
111.5,123
111.6,123
111.7,114
111.8,90
111.9,100
112,151
112.1,149
112.2,149
112.3,83
112.4,128
112.5,110
112.6,102
112.7,92
112.8,90
112.9,81
113,146
113.1,139
113.2,139
113.3,166
113.4,144
113.5,117
113.6,144
113.7,154
113.8,114
113.9,76
114,85
114.1,151
114.2,132
114.3,144
114.4,121
114.5,154
114.6,177
114.7,98
114.8,137
114.9,110
115,137
115.1,121
115.2,135
115.3,114
115.4,76
115.5,121
115.6,79
115.7,132
115.8,85
115.9,106
116,104
116.1,98
116.2,142
116.3,94
116.4,119
116.5,114
116.6,112
116.7,108
116.8,142
116.9,83
117,117
117.1,83
117.2,114
117.3,123
117.4,112
117.5,125
117.6,151
117.7,119
117.8,125
117.9,119
118,123
118.1,139
118.2,159
118.3,106
118.4,121
118.5,114
118.6,98
118.7,121
118.8,104
118.9,108
119,62
119.1,128
119.2,110
119.3,81
119.4,92
119.5,69
119.6,98
119.7,130
119.8,149
119.9,100
120,123
120.1,110
120.2,121
120.3,151
120.4,174
120.5,199
120.6,177
120.7,204
120.8,174
120.9,177
121,177
121.1,169
121.2,174
121.3,156
121.4,130
121.5,149
121.6,204
121.7,225
121.8,262
121.9,240
122,161
122.1,144
122.2,196
122.3,193
122.4,164
122.5,161
122.6,159
122.7,166
122.8,119
122.9,123
123,110
123.1,146
123.2,139
123.3,177
123.4,188
123.5,132
123.6,154
123.7,151
123.8,121
123.9,137
124,169
124.1,125
124.2,139
124.3,137
124.4,154
124.5,156
124.6,166
124.7,112
124.8,207
124.9,219
125,177
125.1,159
125.2,210
125.3,234
125.4,174
125.5,228
125.6,276
125.7,253
125.8,222
125.9,161
126,172
126.1,207
126.2,182
126.3,149
126.4,156
126.5,139
126.6,137
126.7,207
126.8,182
126.9,149
127,164
127.1,100
127.2,123
127.3,159
127.4,119
127.5,106
127.6,169
127.7,132
127.8,159
127.9,142
128,94
128.1,128
128.2,146
128.3,98
128.4,96
128.5,88
128.6,98
128.7,88
128.8,123
128.9,130
129,130
129.1,110
129.2,139
129.3,123
129.4,149
129.5,144
129.6,137
129.7,190
129.8,108
129.9,132
130,110
130.1,137
130.2,128
130.3,182
130.4,110
130.5,104
130.6,117
130.7,117
130.8,88
130.9,123
131,83
131.1,137
131.2,121
131.3,146
131.4,137
131.5,139
131.6,174
131.7,144
131.8,204
131.9,216
132,207
132.1,172
132.2,164
132.3,185
132.4,182
132.5,240
132.6,190
132.7,166
132.8,177
132.9,146
133,169
133.1,219
133.2,151
133.3,149
133.4,156
133.5,132
133.6,169
133.7,174
133.8,123
133.9,117
134,125
134.1,161
134.2,125
134.3,139
134.4,132
134.5,125
134.6,135
134.7,169
134.8,114
134.9,135
135,154
135.1,121
135.2,164
135.3,149
135.4,146
135.5,130
135.6,164
135.7,146
135.8,169
135.9,121
136,125
136.1,108
136.2,130
136.3,114
136.4,102
136.5,149
136.6,154
136.7,125
136.8,94
136.9,144
137,110
137.1,135
137.2,193
137.3,185
137.4,169
137.5,119
137.6,117
137.7,130
137.8,123
137.9,156
138,137
138.1,169
138.2,154
138.3,172
138.4,159
138.5,121
138.6,88
138.7,142
138.8,156
138.9,106
139,151
139.1,193
139.2,174
139.3,190
139.4,177
139.5,161
139.6,137
139.7,132
139.8,159
139.88,137