File: data/xrd_icdd_PDF/00-061-0089 (PD3).csv
7.84,5616
7.895,5687
7.95,5613
8.005,5581
8.06,5585
8.115,5614
8.17,5575
8.225,5591
8.28,5645
8.335,5678
8.39,5614
8.445,5529
8.5,5660
8.555,5614
8.61,5607
8.665,5604
8.72,5672
8.775,5668
8.83,5544
8.885,5606
8.94,5532
8.995,5609
9.05,5628
9.105,5504
9.16,5566
9.215,5571
9.27,5613
9.325,5547
9.38,5663
9.435,5621
9.49,5517
9.545,5665
9.6,5638
9.655,5700
9.71,5686
9.765,5523
9.82,5531
9.875,5511
9.93,5598
9.985,5482
10.04,5508
10.095,5465
10.15,5515
10.205,5530
10.26,5590
10.315,5483
10.37,5472
10.425,5603
10.48,5518
10.535,5542
10.59,5505
10.645,5477
10.7,5443
10.755,5452
10.81,5536
10.865,5417
10.92,5380
10.975,5456
11.03,5397
11.085,5503
11.14,5556
11.195,5468
11.25,5422
11.305,5368
11.36,5478
11.415,5342
11.47,5403
11.525,5407
11.58,5373
11.635,5488
11.69,5563
11.745,5419
11.8,5405
11.855,5443
11.91,5401
11.965,5440
12.02,5471
12.075,5384
12.13,5317
12.185,5304
12.24,5285
12.295,5343
12.35,5303
12.405,5300
12.46,5371
12.515,5403
12.57,5417
12.625,5327
12.68,5315
12.735,5246
12.79,5298
12.845,5387
12.9,5431
12.955,5409
13.01,5472
13.065,5453
13.12,5441
13.175,5488
13.23,5597
13.285,5884
13.34,5919
13.395,5431
13.45,5385
13.505,5298
13.56,5359
13.615,5283
13.67,5262
13.725,5234
13.78,5203
13.835,5158
13.89,5147
13.945,5212
14,5233
14.055,5226
14.11,5216
14.165,5204
14.22,5123
14.275,5174
14.33,5202
14.385,5218
14.44,5112
14.495,5261
14.55,5161
14.605,5066
14.66,5101
14.715,5129
14.77,5258
14.825,5088
14.88,5182
14.935,5245
14.99,5243
15.045,5275
15.1,5221
15.155,5193
15.21,5344
15.265,5333
15.32,5460
15.375,5486
15.43,5670
15.485,5770
15.54,6287
15.595,6288
15.65,5548
15.705,5222
15.76,5143
15.815,5073
15.87,5115
15.925,5132
15.98,5133
16.035,5130
16.09,5081
16.145,5186
16.2,5112
16.255,5000
16.31,5116
16.365,5119
16.42,5073
16.475,5157
16.53,5162
16.585,5125
16.64,5100
16.695,5123
16.75,5114
16.805,5228
16.86,5232
16.915,5129
16.97,5064
17.025,5042
17.08,4992
17.135,4978
17.19,5020
17.245,4990
17.3,5009
17.355,5124
17.41,5061
17.465,5042
17.52,4978
17.575,5020
17.63,4983
17.685,5020
17.74,4898
17.795,4971
17.85,5054
17.905,4916
17.96,5142
18.015,4951
18.07,4987
18.125,5012
18.18,5022
18.235,5033
18.29,5052
18.345,5063
18.4,5178
18.455,5027
18.51,5023
18.565,5124
18.62,5022
18.675,5082
18.73,5046
18.785,5019
18.84,5059
18.895,5054
18.95,5124
19.005,5275
19.06,5557
19.115,5597
19.17,5664
19.225,5211
19.28,5070
19.335,4902
19.39,4888
19.445,4918
19.5,4871
19.555,4812
19.61,4888
19.665,4874
19.72,4893
19.775,4887
19.83,4827
19.885,4824
19.94,4861
19.995,4906
20.05,4806
20.105,4912
20.16,4949
20.215,4923
20.27,4919
20.325,4915
20.38,4958
20.435,4976
20.49,5126
20.545,5143
20.6,5057
20.655,4969
20.71,4896
20.765,4844
20.82,4737
20.875,4786
20.93,4776
20.985,4800
21.04,4857
21.095,4645
21.15,4781
21.205,4648
21.26,4633
21.315,4607
21.37,4578
21.425,4516
21.48,4583
21.535,4541
21.59,4563
21.645,4599
21.7,4516
21.755,4525
21.81,4502
21.865,4489
21.92,4536
21.975,4606
22.03,4619
22.085,4696
22.14,4779
22.195,4932
22.25,5179
22.305,5106
22.36,4657
22.415,4435
22.47,4291
22.525,4294
22.58,4261
22.635,4300
22.69,4264
22.745,4240
22.8,4262
22.855,4398
22.91,4456
22.965,4589
23.02,4790
23.075,5016
23.13,5450
23.185,6194
23.24,7211
23.295,8051
23.35,9425
23.405,9981
23.46,7295
23.515,5463
23.57,4821
23.625,4565
23.68,4418
23.735,4277
23.79,4234
23.845,4234
23.9,4164
23.955,4154
24.01,3993
24.065,3999
24.12,4026
24.175,3869
24.23,3925
24.285,3905
24.34,3903
24.395,3894
24.45,3840
24.505,3851
24.56,3822
24.615,3863
24.67,3791
24.725,3766
24.78,3797
24.835,3762
24.89,3714
24.945,3718
25,3707
25.055,3661
25.11,3729
25.165,3689
25.22,3769
25.275,3764
25.33,3742
25.385,3787
25.44,3814
25.495,3919
25.55,3990
25.605,4063
25.66,4144
25.715,4275
25.77,4679
25.825,5097
25.88,5842
25.935,6913
25.99,8496
26.045,9541
26.1,7363
26.155,5299
26.21,4638
26.265,4318
26.32,4164
26.375,4078
26.43,3994
26.485,3965
26.54,4056
26.595,4023
26.65,4082
26.705,4389
26.76,4689
26.815,5256
26.87,5017
26.925,4252
26.98,3867
27.035,3712
27.09,3603
27.145,3651
27.2,3556
27.255,3612
27.31,3521
27.365,3628
27.42,3545
27.475,3573
27.53,3565
27.585,3573
27.64,3611
27.695,3701
27.75,3803
27.805,3950
27.86,4235
27.915,4380
27.97,4968
28.025,5649
28.08,6797
28.135,6839
28.19,5014
28.245,4127
28.3,3772
28.355,3642
28.41,3611
28.465,3602
28.52,3503
28.575,3441
28.63,3493
28.685,3424
28.74,3444
28.795,3395
28.85,3425
28.905,3380
28.96,3363
29.015,3382
29.07,3367
29.125,3346
29.18,3441
29.235,3488
29.29,3513
29.345,3491
29.4,3536
29.455,3604
29.51,3475
29.565,3468
29.62,3483
29.675,3542
29.73,3611
29.785,3667
29.84,3840
29.895,4165
29.95,4584
30.005,5310
30.06,6571
30.115,7704
30.17,6731
30.225,5362
30.28,5077
30.335,5246
30.39,5628
30.445,6303
30.5,5760
30.555,4433
30.61,3933
30.665,3720
30.72,3586
30.775,3461
30.83,3481
30.885,3516
30.94,3616
30.995,3754
31.05,4044
31.105,4408
31.16,4796
31.215,4248
31.27,3874
31.325,3726
31.38,3823
31.435,3894
31.49,3832
31.545,3670
31.6,3639
31.655,3495
31.71,3446
31.765,3438
31.82,3432
31.875,3355
31.93,3369
31.985,3421
32.04,3431
32.095,3411
32.15,3326
32.205,3338
32.26,3327
32.315,3350
32.37,3392
32.425,3331
32.48,3448
32.535,3585
32.59,3675
32.645,3745
32.7,3818
32.755,3988
32.81,4211
32.865,4622
32.92,5069
32.975,5946
33.03,7345
33.085,9514
33.14,12757
33.195,12230
33.25,8913
33.305,8492
33.36,9385
33.415,10000
33.47,8208
33.525,6488
33.58,5849
33.635,5369
33.69,5144
33.745,5244
33.8,5622
33.855,6172
33.91,7280
33.965,9352
34.02,12431
34.075,15854
34.13,14030
34.185,8738
34.24,6168
34.295,5076
34.35,4553
34.405,4262
34.46,4142
34.515,3927
34.57,3815
34.625,3786
34.68,3789
34.735,3879
34.79,3880
34.845,4125
34.9,4562
34.955,5321
35.01,6393
35.065,8210
35.12,10033
35.175,8313
35.23,5641
35.285,4664
35.34,4061
35.395,3906
35.45,3757
35.505,3784
35.56,3688
35.615,3569
35.67,3660
35.725,3549
35.78,3503
35.835,3607
35.89,3692
35.945,3874
36,4167
36.055,4469
36.11,4612
36.165,4291
36.22,3945
36.275,3851
36.33,3602
36.385,3467
36.44,3350
36.495,3298
36.55,3259
36.605,3251
36.66,3268
36.715,3215
36.77,3393
36.825,3612
36.88,3788
36.935,3868
36.99,4063
37.045,4370
37.1,5252
37.155,7041
37.21,9456
37.265,11668
37.32,9910
37.375,6095
37.43,4728
37.485,4239
37.54,3924
37.595,3903
37.65,3681
37.705,3706
37.76,3791
37.815,4085
37.87,4601
37.925,4511
37.98,3807
38.035,3496
38.09,3299
38.145,3325
38.2,3335
38.255,3385
38.31,3439
38.365,3569
38.42,3775
38.475,4269
38.53,4769
38.585,5815
38.64,5897
38.695,4709
38.75,4267
38.805,4179
38.86,4370
38.915,4686
38.97,5247
39.025,6039
39.08,7355
39.135,9633
39.19,13479
39.245,17852
39.3,14850
39.355,8498
39.41,6029
39.465,4943
39.52,4291
39.575,4115
39.63,3805
39.685,3540
39.74,3391
39.795,3310
39.85,3216
39.905,3177
39.96,3239
40.015,3172
40.07,3143
40.125,3183
40.18,3099
40.235,3142
40.29,3254
40.345,3346
40.4,3641
40.455,3976
40.51,4574
40.565,5212
40.62,6398
40.675,8081
40.73,7977
40.785,5710
40.84,4322
40.895,3715
40.95,3427
41.005,3193
41.06,3048
41.115,2985
41.17,2884
41.225,2883
41.28,2895
41.335,2830
41.39,2750
41.445,2761
41.5,2749
41.555,2758
41.61,2688
41.665,2617
41.72,2637
41.775,2587
41.83,2614
41.885,2595
41.94,2639
41.995,2620
42.05,2649
42.105,2592
42.16,2614
42.215,2706
42.27,2783
42.325,2884
42.38,3051
42.435,3165
42.49,3428
42.545,3741
42.6,4396
42.655,5349
42.71,5038
42.765,3785
42.82,3182
42.875,2938
42.93,2757
42.985,2691
43.04,2698
43.095,2622
43.15,2593
43.205,2610
43.26,2714
43.315,2832
43.37,2850
43.425,2743
43.48,2665
43.535,2656
43.59,2598
43.645,2575
43.7,2577
43.755,2552
43.81,2599
43.865,2616
43.92,2586
43.975,2614
44.03,2662
44.085,2753
44.14,2675
44.195,2576
44.25,2513
44.305,2566
44.36,2579
44.415,2515
44.47,2535
44.525,2524
44.58,2506
44.635,2453
44.69,2437
44.745,2438
44.8,2403
44.855,2379
44.91,2337
44.965,2427
45.02,2370
45.075,2372
45.13,2390
45.185,2362
45.24,2418
45.295,2510
45.35,2566
45.405,2540
45.46,2454
45.515,2395
45.57,2330
45.625,2318
45.68,2269
45.735,2321
45.79,2330
45.845,2279
45.9,2283
45.955,2309
46.01,2301
46.065,2283
46.12,2336
46.175,2312
46.23,2322
46.285,2359
46.34,2423
46.395,2451
46.45,2477
46.505,2610
46.56,2545
46.615,2527
46.67,2633
46.725,2600
46.78,2681
46.835,2761
46.89,2783
46.945,2647
47,2467
47.055,2477
47.11,2392
47.165,2440
47.22,2520
47.275,2460
47.33,2420
47.385,2432
47.44,2473
47.495,2545
47.55,2590
47.605,2520
47.66,2462
47.715,2432
47.77,2457
47.825,2499
47.88,2534
47.935,2561
47.99,2651
48.045,2777
48.1,3019
48.155,3520
48.21,4314
48.265,5089
48.32,4725
48.375,3588
48.43,3005
48.485,2814
48.54,2702
48.595,2668
48.65,2779
48.705,2960
48.76,3066
48.815,3069
48.87,2746
48.925,2624
48.98,2609
49.035,2490
49.09,2409
49.145,2370
49.2,2343
49.255,2264
49.31,2312
49.365,2283
49.42,2269
49.475,2288
49.53,2261
49.585,2318
49.64,2318
49.695,2317
49.75,2297
49.805,2331
49.86,2340
49.915,2475
49.97,2448
50.025,2439
50.08,2424
50.135,2371
50.19,2295
50.245,2319
50.3,2325
50.355,2348
50.41,2349
50.465,2337
50.52,2232
50.575,2265
50.63,2275
50.685,2267
50.74,2244
50.795,2232
50.85,2213
50.905,2190
50.96,2196
51.015,2224
51.07,2270
51.125,2322
51.18,2326
51.235,2319
51.29,2342
51.345,2398
51.4,2310
51.455,2257
51.51,2209
51.565,2176
51.62,2231
51.675,2164
51.73,2237
51.785,2202
51.84,2151
51.895,2261
51.95,2234
52.005,2272
52.06,2236
52.115,2218
52.17,2295
52.225,2303
52.28,2374
52.335,2344
52.39,2368
52.445,2407
52.5,2423
52.555,2514
52.61,2655
52.665,2924
52.72,3324
52.775,3511
52.83,3197
52.885,2850
52.94,2694
52.995,2540
53.05,2551
53.105,2605
53.16,2575
53.215,2730
53.27,2888
53.325,3026
53.38,3438
53.435,3670
53.49,4024
53.545,4331
53.6,4333
53.655,4275
53.71,3560
53.765,3218
53.82,3125
53.875,3144
53.93,3159
53.985,2929
54.04,2735
54.095,2640
54.15,2637
54.205,2619
54.26,2598
54.315,2579
54.37,2614
54.425,2641
54.48,2818
54.535,2968
54.59,3376
54.645,3814
54.7,3675
54.755,3170
54.81,2862
54.865,2743
54.92,2663
54.975,2646
55.03,2687
55.085,2775
55.14,2874
55.195,3117
55.25,3304
55.305,3308
55.36,3227
55.415,2903
55.47,2754
55.525,2718
55.58,2667
55.635,2753
55.69,2961
55.745,3160
55.8,3165
55.855,3217
55.91,3439
55.965,3590
56.02,3428
56.075,3212
56.13,3214
56.185,3251
56.24,3724
56.295,4279
56.35,5300
56.405,4985
56.46,3796
56.515,3181
56.57,2929
56.625,2827
56.68,2680
56.735,2658
56.79,2659
56.845,2602
56.9,2736
56.955,2800
57.01,2870
57.065,2960
57.12,2802
57.175,2620
57.23,2560
57.285,2607
57.34,2576
57.395,2679
57.45,2857
57.505,3070
57.56,3506
57.615,4227
57.67,4125
57.725,3269
57.78,2820
57.835,2625
57.89,2529
57.945,2454
58,2409
58.055,2370
58.11,2338
58.165,2298
58.22,2314
58.275,2353
58.33,2258
58.385,2260
58.44,2285
58.495,2296
58.55,2381
58.605,2304
58.66,2330
58.715,2383
58.77,2336
58.825,2461
58.88,2476
58.935,2428
58.99,2488
59.045,2556
59.1,2503
59.155,2593
59.21,2629
59.265,2577
59.32,2612
59.375,2696
59.43,2863
59.485,3103
59.54,3659
59.595,4323
59.65,4580
59.705,3987
59.76,3576
59.815,3541
59.87,3412
59.925,3048
59.98,2806
60.035,2626
60.09,2646
60.145,2641
60.2,2709
60.255,2860
60.31,2913
60.365,2810
60.42,2665
60.475,2564
60.53,2598
60.585,2745
60.64,2711
60.695,2787
60.75,2952
60.805,2939
60.86,2638
60.915,2423
60.97,2378
61.025,2333
61.08,2314
61.135,2307
61.19,2289
61.245,2238
61.3,2191
61.355,2234
61.41,2205
61.465,2204
61.52,2225
61.575,2210
61.63,2278
61.685,2238
61.74,2300
61.795,2254
61.85,2348
61.905,2446
61.96,2437
62.015,2391
62.07,2443
62.125,2540
62.18,2706
62.235,2727
62.29,2577
62.345,2452
62.4,2398
62.455,2346
62.51,2324
62.565,2370
62.62,2444
62.675,2482
62.73,2505
62.785,2363
62.84,2342
62.895,2286
62.95,2178
63.005,2242
63.06,2266
63.115,2195
63.17,2218
63.225,2279
63.28,2285
63.335,2240
63.39,2347
63.445,2337
63.5,2316
63.555,2345
63.61,2458
63.665,2514
63.72,2679
63.775,2907
63.83,2772
63.885,2744
63.94,2851
63.995,3181
64.05,3630
64.105,3636
64.16,3036
64.215,2719
64.27,2535
64.325,2430
64.38,2408
64.435,2396
64.49,2377
64.545,2363
64.6,2360
64.655,2388
64.71,2494
64.765,2573
64.82,2775
64.875,3118
64.93,3579
64.985,3525
65.04,3032
65.095,2794
65.15,2616
65.205,2595
65.26,2611
65.315,2587
65.37,2640
65.425,2784
65.48,2993
65.535,3309
65.59,3442
65.645,3174
65.7,2852
65.755,2703
65.81,2647
65.865,2605
65.92,2552
65.975,2573
66.03,2742
66.085,3022
66.14,3082
66.195,2788
66.25,2569
66.305,2471
66.36,2379
66.415,2413
66.47,2336
66.525,2346
66.58,2359
66.635,2358
66.69,2367
66.745,2508
66.8,2442
66.855,2352
66.91,2389
66.965,2542
67.02,2634
67.075,2576
67.13,2536
67.185,2415
67.24,2382
67.295,2353
67.35,2354
67.405,2302
67.46,2320
67.515,2351
67.57,2455
67.625,2557
67.68,2476
67.735,2448
67.79,2439
67.845,2424
67.9,2496
67.955,2673
68.01,2809
68.065,3119
68.12,3527
68.175,3593
68.23,3142
68.285,2751
68.34,2683
68.395,2621
68.45,2632
68.505,2780
68.56,2913
68.615,2775
68.67,2615
68.725,2593
68.78,2739
68.835,2833
68.89,2736
68.945,2496
69,2341
69.055,2333
69.11,2283
69.165,2281
69.22,2292
69.275,2245
69.33,2257
69.385,2272
69.44,2233
69.495,2247
69.55,2249
69.605,2317
69.66,2335
69.715,2336
69.77,2386
69.825,2510
69.88,2464
69.935,2409
69.99,2297
70.045,2304
70.1,2312
70.155,2293
70.21,2329
70.265,2345
70.32,2417
70.375,2496
70.43,2479
70.485,2527
70.54,2424
70.595,2480
70.65,2522
70.705,2697
70.76,2903
70.815,2913
70.87,2881
70.925,2721
70.98,2603
71.035,2587
71.09,2553
71.145,2716
71.2,2597
71.255,2465
71.31,2399
71.365,2317
71.42,2326
71.475,2368
71.53,2388
71.585,2436
71.64,2498
71.695,2671
71.75,2791
71.805,2967
71.86,2966
71.915,2716
71.97,2544
72.025,2428
72.08,2416
72.135,2436
72.19,2399
72.245,2440
72.3,2431
72.355,2386
72.41,2409
72.465,2403
72.52,2415
72.575,2471
72.63,2370
72.685,2410
72.74,2420
72.795,2418
72.85,2486
72.905,2575
72.96,2702
73.015,2963
73.07,3295
73.125,3511
73.18,3182
73.235,2794
73.29,2692
73.345,2623
73.4,2585
73.455,2614
73.51,2721
73.565,2848
73.62,3146
73.675,3417
73.73,3656
73.785,3414
73.84,3087
73.895,2810
73.95,2702
74.005,2745
74.06,2796
74.115,2968
74.17,3079
74.225,3060
74.28,3066
74.335,3143
74.39,3324
74.445,3172
74.5,3132
74.555,3189
74.61,2976
74.665,2795
74.72,2678
74.775,2722
74.83,2745
74.885,2899
74.94,2825
74.995,2647
75.05,2532
75.105,2501
75.16,2550
75.215,2707
75.27,2828
75.325,2940
75.38,2830
75.435,2732
75.49,2566
75.545,2446
75.6,2399
75.655,2360
75.71,2386
75.765,2299
75.82,2318
75.875,2280
75.93,2303
75.985,2348
76.04,2380
76.095,2338
76.15,2321
76.205,2339
76.26,2422
76.315,2473
76.37,2562
76.425,2615
76.48,2664
76.535,2788
76.59,2940
76.645,2845
76.7,2602
76.755,2483
76.81,2350
76.865,2303
76.92,2299
76.975,2266
77.03,2253
77.085,2264
77.14,2311
77.195,2393
77.25,2292
77.305,2353
77.36,2313
77.415,2305
77.47,2376
77.525,2288
77.58,2217
77.635,2215
77.69,2149
77.745,2200
77.8,2196
77.855,2169
77.91,2142
77.965,2157
78.02,2120
78.075,2149
78.13,2141
78.185,2205
78.24,2163
78.295,2207
78.35,2160
78.405,2184
78.46,2232
78.515,2227
78.57,2226
78.625,2237
78.68,2200
78.735,2193
78.79,2176
78.845,2216
78.9,2137
78.955,2168
79.01,2177
79.065,2237
79.12,2306
79.175,2289
79.23,2406
79.285,2549
79.34,2477
79.395,2367
79.45,2362
79.505,2305
79.56,2326
79.615,2333
79.67,2334
79.725,2395
79.78,2398
79.835,2502
79.89,2585
79.945,2737
80,2928
80.055,3196
80.11,3268
80.165,3077
80.22,2854
80.275,2883
80.33,2755
80.385,2682
80.44,2655
80.495,2638
80.55,2486
80.605,2396
80.66,2346
80.715,2295
80.77,2283
80.825,2318
80.88,2278
80.935,2218
80.99,2238
81.045,2238
81.1,2282
81.155,2312
81.21,2268
81.265,2312
81.32,2224
81.375,2260
81.43,2212
81.485,2255
81.54,2343
81.595,2437
81.65,2525
81.705,2585
81.76,2467
81.815,2440
81.87,2397
81.925,2387
81.98,2354
82.035,2377
82.09,2351
82.145,2347
82.2,2330
82.255,2358
82.31,2496
82.365,2663
82.42,2861
82.475,3145
82.53,3165
82.585,2891
82.64,2591
82.695,2482
82.75,2385
82.805,2416
82.86,2495
82.915,2493
82.97,2467
83.025,2457
83.08,2419
83.135,2377
83.19,2299
83.245,2248
83.3,2185
83.355,2225
83.41,2251
83.465,2259
83.52,2303
83.575,2283
83.63,2280
83.685,2185
83.74,2207
83.795,2190
83.85,2272
83.905,2195
83.96,2188
84.015,2160
84.07,2193
84.125,2211
84.18,2186
84.235,2230
84.29,2284
84.345,2360
84.4,2385
84.455,2373
84.51,2302
84.565,2282
84.62,2311
84.675,2224
84.73,2240
84.785,2237
84.84,2278
84.895,2308
84.95,2353
85.005,2334
85.06,2295
85.115,2277
85.17,2226
85.225,2252
85.28,2220
85.335,2216
85.39,2275
85.445,2215
85.5,2201
85.555,2207
85.61,2221
85.665,2265
85.72,2295
85.775,2230
85.83,2280
85.885,2289
85.94,2282
85.995,2274
86.05,2307
86.105,2324
86.16,2335
86.215,2259
86.27,2230
86.325,2248
86.38,2225
86.435,2242
86.49,2288
86.545,2352
86.6,2322
86.655,2364
86.71,2336
86.765,2311
86.82,2274
86.875,2307
86.93,2346
86.985,2363
87.04,2492
87.095,2354
87.15,2386
87.205,2330
87.26,2327
87.315,2293
87.37,2293
87.425,2278
87.48,2313
87.535,2390
87.59,2270
87.645,2275
87.7,2335
87.755,2355
87.81,2369
87.865,2408
87.92,2379
87.975,2361
88.03,2430
88.085,2547
88.14,2636
88.195,2599
88.25,2509
88.305,2504
88.36,2422
88.415,2358
88.47,2339
88.525,2328
88.58,2337
88.635,2352
88.69,2394
88.745,2375
88.8,2409
88.855,2328
88.91,2321
88.965,2383
89.02,2334
89.075,2403
89.13,2498
89.185,2580
89.24,2574
89.295,2525
89.35,2529
89.405,2566
89.46,2663
89.515,2696
89.57,2582
89.625,2558
89.68,2499
89.735,2485
89.755,2510