File: data/xrd_icdd_PDF/00-062-0305 (PD3).csv
10,4338
10.06,4826
10.12,4882
10.18,4700
10.24,4604
10.3,4708
10.36,4620
10.42,4624
10.48,4626
10.54,4648
10.6,4662
10.66,4836
10.72,4614
10.78,4718
10.84,4708
10.9,4702
10.96,4584
11.02,4674
11.08,4738
11.14,4558
11.2,4594
11.26,4612
11.32,4546
11.38,4660
11.44,4570
11.5,4690
11.56,4564
11.62,4570
11.68,4508
11.74,4526
11.8,4522
11.86,4456
11.92,4504
11.98,4466
12.04,4562
12.1,4472
12.16,4510
12.22,4486
12.28,4338
12.34,4512
12.4,4438
12.46,4432
12.52,4436
12.58,4426
12.64,4400
12.7,4476
12.76,4490
12.82,4568
12.88,4424
12.94,4404
13,4518
13.06,4410
13.12,4474
13.18,4426
13.24,4442
13.3,4388
13.36,4278
13.42,4376
13.48,4300
13.54,4462
13.6,4354
13.66,4420
13.72,4266
13.78,4308
13.84,4442
13.9,4332
13.96,4512
14.02,4268
14.08,4424
14.14,4434
14.2,4252
14.26,4184
14.32,4252
14.38,4164
14.44,4408
14.5,4168
14.56,4314
14.62,4188
14.68,4226
14.74,4234
14.8,4114
14.86,4362
14.92,4244
14.98,4368
15.04,4274
15.1,4270
15.16,4276
15.22,4220
15.28,4148
15.34,4192
15.4,4138
15.46,4062
15.52,4192
15.58,4146
15.64,4138
15.7,4132
15.76,4206
15.82,4110
15.88,4134
15.94,4176
16,4228
16.06,4184
16.12,4100
16.18,4154
16.24,4246
16.3,4064
16.36,4128
16.42,4206
16.48,4228
16.54,4144
16.6,4146
16.66,4090
16.72,4192
16.78,4110
16.84,4036
16.9,4148
16.96,4132
17.02,4082
17.08,4100
17.14,4152
17.2,4186
17.26,4092
17.32,4082
17.38,3986
17.44,4038
17.5,4068
17.56,4014
17.62,4066
17.68,4004
17.74,3996
17.8,4052
17.86,3996
17.92,4030
17.98,4068
18.04,4138
18.1,4032
18.16,4012
18.22,4042
18.28,3970
18.34,4022
18.4,3992
18.46,4020
18.52,3998
18.58,4118
18.64,3882
18.7,4022
18.76,4046
18.82,3992
18.88,3964
18.94,3896
19,4040
19.06,3990
19.12,3998
19.18,4058
19.24,4002
19.3,4014
19.36,4074
19.42,3998
19.48,3886
19.54,4046
19.6,4204
19.66,3970
19.72,4042
19.78,3938
19.84,4008
19.9,4052
19.96,4002
20.02,3890
20.08,4032
20.14,4066
20.2,3972
20.26,3930
20.32,4130
20.38,4260
20.44,4228
20.5,4062
20.56,4182
20.62,4090
20.68,4110
20.74,4250
20.8,4438
20.86,4468
20.92,5122
20.98,5848
21.04,6896
21.1,8992
21.16,11070
21.22,12880
21.28,11460
21.34,7568
21.4,5292
21.46,4494
21.52,4274
21.58,4090
21.64,4114
21.7,3904
21.76,3946
21.82,3812
21.88,3962
21.94,3988
22,3942
22.06,3924
22.12,3906
22.18,3946
22.24,3876
22.3,3902
22.36,3880
22.42,3812
22.48,3778
22.54,3648
22.6,3782
22.66,3658
22.72,3622
22.78,3800
22.84,3816
22.9,3840
22.96,3734
23.02,3696
23.08,3700
23.14,3588
23.2,3778
23.26,3688
23.32,3746
23.38,3612
23.44,3742
23.5,3700
23.56,3760
23.62,3648
23.68,3684
23.74,3710
23.8,3748
23.86,3816
23.92,3740
23.98,3722
24.04,3732
24.1,3746
24.16,3960
24.22,4176
24.28,4488
24.34,4940
24.4,5680
24.46,7098
24.52,9408
24.58,9138
24.64,6912
24.7,5274
24.76,4392
24.82,4194
24.88,3958
24.94,3794
25,3656
25.06,3624
25.12,3718
25.18,3598
25.24,3616
25.3,3622
25.36,3686
25.42,3574
25.48,3708
25.54,3628
25.6,3556
25.66,3634
25.72,3646
25.78,3676
25.84,3568
25.9,3652
25.96,3600
26.02,3688
26.08,3580
26.14,3680
26.2,3524
26.26,3556
26.32,3556
26.38,3574
26.44,3536
26.5,3624
26.56,3558
26.62,3544
26.68,3546
26.74,3548
26.8,3598
26.86,3506
26.92,3518
26.98,3514
27.04,3466
27.1,3554
27.16,3512
27.22,3454
27.28,3546
27.34,3484
27.4,3496
27.46,3504
27.52,3488
27.58,3562
27.64,3570
27.7,3478
27.76,3566
27.82,3510
27.88,3426
27.94,3506
28,3606
28.06,3522
28.12,3480
28.18,3534
28.24,3498
28.3,3450
28.36,3474
28.42,3432
28.48,3466
28.54,3428
28.6,3340
28.66,3400
28.72,3484
28.78,3456
28.84,3446
28.9,3530
28.96,3534
29.02,3438
29.08,3378
29.14,3528
29.2,3368
29.26,3296
29.32,3468
29.38,3394
29.44,3352
29.5,3462
29.56,3428
29.62,3540
29.68,3548
29.74,3540
29.8,3414
29.86,3484
29.92,3444
29.98,3454
30.04,3512
30.1,3442
30.16,3464
30.22,3422
30.28,3428
30.34,3472
30.4,3412
30.46,3440
30.52,3530
30.58,3412
30.64,3478
30.7,3420
30.76,3528
30.82,3444
30.88,3370
30.94,3462
31,3552
31.06,3438
31.12,3452
31.18,3496
31.24,3496
31.3,3406
31.36,3558
31.42,3390
31.48,3396
31.54,3448
31.6,3536
31.66,3490
31.72,3596
31.78,3454
31.84,3440
31.9,3362
31.96,3412
32.02,3376
32.08,3486
32.14,3504
32.2,3382
32.26,3534
32.32,3410
32.38,3350
32.44,3484
32.5,3476
32.56,3386
32.62,3356
32.68,3510
32.74,3436
32.8,3466
32.86,3482
32.92,3414
32.98,3534
33.04,3470
33.1,3412
33.16,3318
33.22,3422
33.28,3438
33.34,3484
33.4,3398
33.46,3576
33.52,3622
33.58,3526
33.64,3468
33.7,3394
33.76,3474
33.82,3380
33.88,3418
33.94,3542
34,3502
34.06,3616
34.12,3544
34.18,3486
34.24,3520
34.3,3628
34.36,3576
34.42,3734
34.48,3628
34.54,3782
34.6,3952
34.66,4138
34.72,4628
34.78,5218
34.84,6194
34.9,8102
34.96,11568
35.02,15916
35.08,15356
35.14,12024
35.2,7618
35.26,5724
35.32,4650
35.38,4260
35.44,4126
35.5,3992
35.56,3722
35.62,3684
35.68,3726
35.74,3686
35.8,3640
35.86,3712
35.92,3640
35.98,3584
36.04,3630
36.1,3578
36.16,3706
36.22,3708
36.28,3564
36.34,3674
36.4,3720
36.46,3600
36.52,3560
36.58,3672
36.64,3632
36.7,3602
36.76,3670
36.82,3540
36.88,3620
36.94,3664
37,3626
37.06,3514
37.12,3662
37.18,3652
37.24,3610
37.3,3486
37.36,3496
37.42,3488
37.48,3492
37.54,3472
37.6,3580
37.66,3588
37.72,3536
37.78,3532
37.84,3494
37.9,3518
37.96,3444
38.02,3470
38.08,3558
38.14,3500
38.2,3600
38.26,3422
38.32,3470
38.38,3460
38.44,3526
38.5,3428
38.56,3598
38.62,3520
38.68,3490
38.74,3590
38.8,3550
38.86,3750
38.92,3668
38.98,3608
39.04,3562
39.1,3600
39.16,3520
39.22,3622
39.28,3540
39.34,3464
39.4,3466
39.46,3554
39.52,3456
39.58,3518
39.64,3526
39.7,3732
39.76,3560
39.82,3752
39.88,3776
39.94,3724
40,3806
40.06,3954
40.12,3984
40.18,4172
40.24,4084
40.3,4012
40.36,4072
40.42,4166
40.48,4126
40.54,4066
40.6,4248
40.66,4306
40.72,4570
40.78,4836
40.84,5082
40.9,5752
40.96,6474
41.02,8076
41.08,10434
41.14,14016
41.2,20980
41.26,36390
41.32,57560
41.38,57938
41.44,44960
41.5,30824
41.56,17692
41.62,11860
41.68,8666
41.74,6928
41.8,5922
41.86,5310
41.92,4944
41.98,4780
42.04,4506
42.1,4402
42.16,4210
42.22,4132
42.28,4258
42.34,4110
42.4,4102
42.46,4216
42.52,4224
42.58,4172
42.64,4038
42.7,4200
42.76,4444
42.82,4492
42.88,4792
42.94,5388
43,6104
43.06,7460
43.12,9754
43.18,14956
43.24,23458
43.3,25180
43.36,21596
43.42,16838
43.48,11258
43.54,8032
43.6,6286
43.66,5192
43.72,4826
43.78,4442
43.84,4132
43.9,4068
43.96,3990
44.02,3902
44.08,3830
44.14,3712
44.2,3766
44.26,3812
44.32,3770
44.38,3720
44.44,3746
44.5,3772
44.56,3676
44.62,3692
44.68,3606
44.74,3580
44.8,3594
44.86,3694
44.92,3624
44.98,3562
45.04,3602
45.1,3658
45.16,3610
45.22,3508
45.28,3662
45.34,3548
45.4,3482
45.46,3598
45.52,3562
45.58,3554
45.64,3614
45.7,3506
45.76,3478
45.82,3598
45.88,3622
45.94,3602
46,3536
46.06,3494
46.12,3524
46.18,3632
46.24,3512
46.3,3474
46.36,3480
46.42,3546
46.48,3572
46.54,3534
46.6,3420
46.66,3476
46.72,3576
46.78,3566
46.84,3554
46.9,3498
46.96,3568
47.02,3506
47.08,3592
47.14,3472
47.2,3506
47.26,3416
47.32,3446
47.38,3614
47.44,3588
47.5,3558
47.56,3426
47.62,3502
47.68,3422
47.74,3506
47.8,3450
47.86,3630
47.92,3468
47.98,3530
48.04,3416
48.1,3368
48.16,3574
48.22,3546
48.28,3484
48.34,3398
48.4,3412
48.46,3522
48.52,3440
48.58,3460
48.64,3438
48.7,3394
48.76,3556
48.82,3380
48.88,3470
48.94,3514
49,3470
49.06,3444
49.12,3368
49.18,3456
49.24,3552
49.3,3368
49.36,3442
49.42,3290
49.48,3472
49.54,3450
49.6,3584
49.66,3550
49.72,3462
49.78,3500
49.84,3392
49.9,3566
49.96,3564
50.02,3614
50.08,3750
50.14,3780
50.2,4002
50.26,4342
50.32,4828
50.38,5780
50.44,5306
50.5,5192
50.56,4672
50.62,4222
50.68,3930
50.74,3814
50.8,3664
50.86,3432
50.92,3482
50.98,3412
51.04,3358
51.1,3466
51.16,3464
51.22,3394
51.28,3448
51.34,3384
51.4,3310
51.46,3342
51.52,3338
51.58,3412
51.64,3402
51.7,3368
51.76,3518
51.82,3482
51.88,3408
51.94,3444
52,3446
52.06,3496
52.12,3386
52.18,3588
52.24,3542
52.3,3624
52.36,3616
52.42,3584
52.48,3540
52.54,3626
52.6,3552
52.66,3586
52.72,3354
52.78,3550
52.84,3510
52.9,3388
52.96,3430
53.02,3526
53.08,3378
53.14,3538
53.2,3390
53.26,3356
53.32,3384
53.38,3412
53.44,3370
53.5,3422
53.56,3410
53.62,3384
53.68,3386
53.74,3228
53.8,3364
53.86,3408
53.92,3356
53.98,3368
54.04,3414
54.1,3308
54.16,3356
54.22,3324
54.28,3416
54.34,3254
54.4,3286
54.46,3462
54.52,3356
54.58,3440
54.64,3446
54.7,3340
54.76,3448
54.82,3514
54.88,3482
54.94,3454
55,3460
55.06,3634
55.12,3758
55.18,3954
55.24,4670
55.3,5012
55.36,4726
55.42,4542
55.48,4240
55.54,3906
55.6,3612
55.66,3562
55.72,3508
55.78,3459
55.84,3465
55.9,3374
55.96,3475
56.02,3433
56.08,3527
56.14,3446
56.2,3633
56.26,3473
56.32,3495
56.38,3525
56.44,3571
56.5,3606
56.56,3667
56.62,3674
56.68,3899
56.74,4141
56.8,4474
56.86,4859
56.92,4620
56.98,4497
57.04,4225
57.1,3915
57.16,3788
57.22,3561
57.28,3473
57.34,3460
57.4,3411
57.46,3310
57.52,3343
57.58,3381
57.64,3441
57.7,3449
57.76,3444
57.82,3366
57.88,3302
57.94,3472
58,3380
58.06,3318
58.12,3336
58.18,3301
58.24,3438
58.3,3370
58.36,3401
58.42,3360
58.48,3386
58.54,3298
58.6,3325
58.66,3431
58.72,3328
58.78,3382
58.84,3380
58.9,3288
58.96,3445
59.02,3448
59.08,3317
59.14,3381
59.2,3421
59.26,3310
59.32,3306
59.38,3286
59.44,3362
59.5,3256
59.56,3396
59.62,3298
59.68,3362
59.74,3348
59.8,3388
59.86,3298
59.92,3468
59.98,3434
60.04,3540
60.1,3352
60.16,3420
60.22,3332
60.28,3384
60.34,3452
60.4,3312
60.46,3344
60.52,3270
60.58,3364
60.64,3302
60.7,3352
60.76,3430
60.82,3496
60.88,3442
60.94,3318
61,3374
61.06,3302
61.12,3324
61.18,3458
61.24,3386
61.3,3424
61.36,3422
61.42,3272
61.48,3334
61.54,3336
61.6,3342
61.66,3240
61.72,3310
61.78,3480
61.84,3550
61.9,3418
61.96,3536
62.02,3424
62.08,3498
62.14,3448
62.2,3566
62.26,3598
62.32,3654
62.38,3608
62.44,3636
62.5,3732
62.56,3758
62.62,3850
62.68,4218
62.74,4704
62.8,5860
62.86,6648
62.92,6310
62.98,5892
63.04,5732
63.1,4886
63.16,4388
63.22,3996
63.28,3762
63.34,3624
63.4,3584
63.46,3432
63.52,3474
63.58,3472
63.64,3524
63.7,3334
63.76,3370
63.82,3496
63.88,3322
63.94,3278
64,3440
64.06,3378
64.12,3394
64.18,3158
64.24,3522
64.3,3372
64.36,3440
64.42,3272
64.48,3358
64.54,3416
64.6,3406
64.66,3428
64.72,3412
64.78,3320
64.84,3370
64.9,3404
64.96,3428
65.02,3398
65.08,3358
65.14,3416
65.2,3414
65.26,3430
65.32,3462
65.38,3462
65.44,3530
65.5,3544
65.56,3432
65.62,3452
65.68,3506
65.74,3482
65.8,3530
65.86,3526
65.92,3520
65.98,3506
66.04,3574
66.1,3572
66.16,3516
66.22,3484
66.28,3642
66.34,3654
66.4,3620
66.46,3680
66.52,3738
66.58,3896
66.64,3882
66.7,3936
66.76,4082
66.82,4554
66.88,4754
66.94,5116
67,6102
67.06,7962
67.12,11056
67.18,12606
67.24,10902
67.3,10002
67.36,9786
67.42,8198
67.48,6542
67.54,5416
67.6,5002
67.66,4408
67.72,4166
67.78,4040
67.84,3802
67.9,3676
67.96,3646
68.02,3786
68.08,3552
68.14,3548
68.2,3594
68.26,3568
68.32,3590
68.38,3540
68.44,3380
68.5,3544
68.56,3376
68.62,3276
68.68,3420
68.74,3418
68.8,3382
68.86,3344
68.92,3442
68.98,3260
69.04,3338
69.1,3332
69.16,3334
69.22,3418
69.28,3480
69.34,3420
69.4,3434
69.46,3446
69.52,3402
69.58,3254
69.64,3406
69.7,3502
69.76,3384
69.82,3484
69.88,3386
69.94,3462
70,3388
70.06,3450
70.12,3376
70.18,3376
70.24,3384
70.3,3272
70.36,3454
70.42,3324
70.48,3420
70.54,3340
70.6,3398
70.66,3482
70.72,3336
70.78,3424
70.84,3260
70.9,3306
70.96,3334
71.02,3422
71.08,3450
71.14,3406
71.2,3400
71.26,3320
71.32,3286
71.38,3436
71.44,3394
71.5,3250
71.56,3360
71.62,3264
71.68,3508
71.74,3440
71.8,3466
71.86,3380
71.92,3274
71.98,3286
72.04,3408
72.1,3324
72.16,3390
72.22,3296
72.28,3430
72.34,3400
72.4,3472
72.46,3434
72.52,3428
72.58,3460
72.64,3430
72.7,3334
72.76,3494
72.82,3410
72.88,3406
72.94,3434
73,3462
73.06,3370
73.12,3506
73.18,3482
73.24,3628
73.3,3598
73.36,3500
73.42,3652
73.48,3736
73.54,3844
73.6,4014
73.66,4036
73.72,4190
73.78,4500
73.84,4956
73.9,5762
73.96,7494
74.02,9894
74.08,10656
74.14,9566
74.2,9130
74.26,9002
74.32,7778
74.38,6598
74.44,5536
74.5,4884
74.56,4316
74.62,4122
74.68,3828
74.74,3790
74.8,3668
74.86,3718
74.92,3594
74.98,3596
75.04,3524
75.1,3520
75.16,3386
75.22,3518
75.28,3400
75.34,3388
75.4,3434
75.46,3430
75.52,3480
75.58,3410
75.64,3406
75.7,3360
75.76,3352
75.82,3404
75.88,3362
75.94,3350
76,3286
76.06,3512
76.12,3346
76.18,3302
76.24,3382
76.3,3358
76.36,3364
76.42,3376
76.48,3348
76.54,3380
76.6,3422
76.66,3396
76.72,3380
76.78,3318
76.84,3400
76.9,3406
76.96,3436
77.02,3392
77.08,3336
77.14,3542
77.2,3446
77.26,3510
77.32,3494
77.38,3390
77.44,3414
77.5,3392
77.56,3468
77.62,3396
77.68,3548
77.74,3428
77.8,3550
77.86,3540
77.92,3562
77.98,3748
78.04,3918
78.1,3948
78.16,3750
78.22,3910
78.28,3844
78.34,3820
78.4,3626
78.46,3570
78.52,3628
78.58,3540
78.64,3446
78.7,3412
78.76,3452
78.82,3456
78.88,3352
78.94,3402
79,3314
79.06,3418
79.12,3368
79.18,3584
79.24,3550
79.3,3652
79.36,3792
79.42,3928
79.48,3750
79.54,3714
79.6,3778
79.66,3592
79.72,3542
79.78,3598
79.84,3622
79.9,3410
79.96,3388
80.02,3340
80.08,3474
80.14,3272
80.2,3368
80.26,3280
80.32,3284
80.38,3316
80.44,3340
80.5,3394
80.56,3378
80.62,3322
80.68,3326
80.74,3234
80.8,3284
80.86,3266
80.92,3306
80.98,3294
81.04,3364
81.1,3396
81.16,3386
81.22,3376
81.28,3362
81.34,3268
81.4,3370
81.46,3300
81.52,3278
81.58,3368
81.64,3334
81.7,3312
81.76,3338
81.82,3268
81.88,3306
81.94,3288
82,3252
82.06,3280
82.12,3270
82.18,3256
82.24,3372
82.3,3264
82.36,3332
82.42,3324
82.48,3298
82.54,3242
82.6,3254
82.66,3242
82.72,3160
82.78,3326
82.84,3362
82.9,3364
82.96,3300
83.02,3382
83.08,3162
83.14,3138
83.2,3272
83.26,3318
83.32,3370
83.38,3306
83.44,3182
83.5,3342
83.56,3306
83.62,3320
83.68,3346
83.74,3348
83.8,3280
83.86,3270
83.92,3356
83.98,3326
84.04,3330
84.1,3346
84.16,3318
84.22,3362
84.28,3316
84.34,3476
84.4,3500
84.46,3632
84.52,3822
84.58,4018
84.64,4340
84.7,4260
84.76,4026
84.82,3908
84.88,3966
84.94,3852
85,3808
85.06,3678
85.12,3532
85.18,3488
85.24,3386
85.3,3366
85.36,3480
85.42,3298
85.48,3476
85.54,3406
85.6,3350
85.66,3252
85.72,3342
85.78,3332
85.84,3248
85.9,3418
85.96,3366
86.02,3222
86.08,3390
86.14,3318
86.2,3188
86.26,3292
86.32,3398
86.38,3368
86.44,3394
86.5,3346
86.56,3332
86.62,3232
86.68,3434
86.74,3334
86.8,3284
86.86,3348
86.92,3282
86.98,3322
87.04,3344
87.1,3342
87.16,3386
87.22,3368
87.28,3260
87.34,3372
87.4,3408
87.46,3496
87.52,3346
87.58,3328
87.64,3454
87.7,3370
87.76,3270
87.82,3440
87.88,3444
87.94,3440
88,3418
88.06,3544
88.12,3680
88.18,3658
88.24,3752
88.3,3908
88.36,4108
88.42,4552
88.48,5396
88.54,6154
88.6,6002
88.66,5400
88.72,5062
88.78,5204
88.84,5152
88.9,4826
88.96,4476
89.02,4234
89.08,4022
89.14,4064
89.2,3784
89.26,3832
89.32,3776
89.38,3734
89.44,3940
89.5,3956
89.56,3960
89.62,4082
89.68,4468
89.74,4836
89.8,5568
89.86,5966
89.92,5692
89.98,5356