File: data/xrd_icdd_PDF/00-058-0292 (PD3).csv
16,3955
16.055,3965
16.11,4067
16.165,3971
16.22,3963
16.275,3935
16.33,3963
16.385,4050
16.44,4011
16.495,3921
16.55,4001
16.605,3936
16.66,3900
16.715,3943
16.77,3975
16.825,3919
16.88,3915
16.935,4004
16.99,3879
17.045,3923
17.1,3978
17.155,3919
17.21,3952
17.265,3990
17.32,3977
17.375,4012
17.43,3990
17.485,4070
17.54,4040
17.595,4069
17.65,4042
17.705,4058
17.76,4116
17.815,4185
17.87,4118
17.925,4076
17.98,3994
18.035,4048
18.09,3976
18.145,4031
18.2,3903
18.255,3950
18.31,4014
18.365,3974
18.42,3982
18.475,4027
18.53,3960
18.585,4088
18.64,4081
18.695,4034
18.75,4003
18.805,3960
18.86,4005
18.915,3979
18.97,3978
19.025,4003
19.08,3990
19.135,4074
19.19,3966
19.245,4027
19.3,3949
19.355,4028
19.41,4019
19.465,3877
19.52,4016
19.575,3885
19.63,3943
19.685,3979
19.74,3971
19.795,4002
19.85,3976
19.905,4016
19.96,4025
20.015,4036
20.07,4100
20.125,4136
20.18,4225
20.235,4366
20.29,4470
20.345,4701
20.4,5051
20.455,5662
20.51,6333
20.565,5688
20.62,4834
20.675,4808
20.73,5055
20.785,5467
20.84,5413
20.895,5140
20.95,5230
21.005,5488
21.06,5609
21.115,6069
21.17,6485
21.225,6700
21.28,6741
21.335,6730
21.39,6294
21.445,5781
21.5,5261
21.555,4747
21.61,4316
21.665,4002
21.72,3979
21.775,3813
21.83,3724
21.885,3610
21.94,3584
21.995,3457
22.05,3419
22.105,3384
22.16,3416
22.215,3277
22.27,3314
22.325,3261
22.38,3324
22.435,3281
22.49,3210
22.545,3154
22.6,3177
22.655,3148
22.71,3174
22.765,3094
22.82,3091
22.875,3078
22.93,3161
22.985,3099
23.04,3136
23.095,3132
23.15,3094
23.205,3167
23.26,3131
23.315,3115
23.37,3168
23.425,3149
23.48,3185
23.535,3131
23.59,3111
23.645,3219
23.7,3174
23.755,3196
23.81,3143
23.865,3184
23.92,3473
23.975,3653
24.03,3918
24.085,4395
24.14,5204
24.195,6604
24.25,7808
24.305,6191
24.36,4339
24.415,3658
24.47,3506
24.525,3525
24.58,3818
24.635,4347
24.69,5298
24.745,5875
24.8,4967
24.855,3642
24.91,3111
24.965,2887
25.02,2865
25.075,2759
25.13,2774
25.185,2735
25.24,2746
25.295,2817
25.35,2830
25.405,2895
25.46,3067
25.515,3286
25.57,3689
25.625,4531
25.68,5726
25.735,7257
25.79,5439
25.845,3656
25.9,3028
25.955,2833
26.01,2719
26.065,2631
26.12,2644
26.175,2617
26.23,2552
26.285,2547
26.34,2576
26.395,2533
26.45,2518
26.505,2510
26.56,2524
26.615,2542
26.67,2508
26.725,2492
26.78,2532
26.835,2591
26.89,2548
26.945,2562
27,2617
27.055,2617
27.11,2680
27.165,2701
27.22,2723
27.275,2718
27.33,2816
27.385,2787
27.44,2768
27.495,2775
27.55,2724
27.605,2881
27.66,2952
27.715,3305
27.77,3737
27.825,4715
27.88,6216
27.935,8016
27.99,7554
28.045,4873
28.1,3676
28.155,3284
28.21,3105
28.265,2892
28.32,2805
28.375,2680
28.43,2569
28.485,2503
28.54,2538
28.595,2501
28.65,2457
28.705,2368
28.76,2332
28.815,2350
28.87,2285
28.925,2283
28.98,2266
29.035,2227
29.09,2244
29.145,2229
29.2,2263
29.255,2302
29.31,2355
29.365,2367
29.42,2462
29.475,2541
29.53,2758
29.585,2972
29.64,3355
29.695,3852
29.75,4666
29.805,5674
29.86,4830
29.915,3331
29.97,2744
30.025,2482
30.08,2387
30.135,2289
30.19,2286
30.245,2231
30.3,2200
30.355,2235
30.41,2221
30.465,2280
30.52,2363
30.575,2332
30.63,2378
30.685,2397
30.74,2375
30.795,2348
30.85,2289
30.905,2216
30.96,2180
31.015,2174
31.07,2171
31.125,2206
31.18,2197
31.235,2150
31.29,2147
31.345,2157
31.4,2187
31.455,2276
31.51,2216
31.565,2205
31.62,2326
31.675,2320
31.73,2459
31.785,2515
31.84,2572
31.895,2732
31.95,2864
32.005,3050
32.06,3098
32.115,3156
32.17,3151
32.225,3367
32.28,3815
32.335,4735
32.39,5946
32.445,8294
32.5,12356
32.555,16886
32.61,12704
32.665,7364
32.72,5445
32.775,5083
32.83,5248
32.885,6092
32.94,7998
32.995,11222
33.05,16101
33.105,23520
33.16,24426
33.215,13783
33.27,7567
33.325,5175
33.38,4071
33.435,3411
33.49,3171
33.545,2910
33.6,2732
33.655,2584
33.71,2479
33.765,2343
33.82,2288
33.875,2289
33.93,2303
33.985,2223
34.04,2245
34.095,2185
34.15,2175
34.205,2241
34.26,2232
34.315,2334
34.37,2336
34.425,2360
34.48,2454
34.535,2464
34.59,2559
34.645,2644
34.7,2787
34.755,2937
34.81,3113
34.865,3195
34.92,3397
34.975,3560
35.03,3830
35.085,4203
35.14,4993
35.195,6233
35.25,8550
35.305,12389
35.36,18985
35.415,27008
35.47,22334
35.525,12547
35.58,9178
35.635,7962
35.69,7639
35.745,8064
35.8,9513
35.855,11805
35.91,17327
35.965,26873
36.02,36542
36.075,23880
36.13,11906
36.185,7423
36.24,5524
36.295,4637
36.35,4031
36.405,3829
36.46,3566
36.515,3431
36.57,3180
36.625,2952
36.68,2675
36.735,2571
36.79,2416
36.845,2334
36.9,2324
36.955,2322
37.01,2350
37.065,2351
37.12,2337
37.175,2360
37.23,2411
37.285,2557
37.34,2727
37.395,2906
37.45,3186
37.505,3641
37.56,4554
37.615,5893
37.67,8671
37.725,13679
37.78,19822
37.835,18775
37.89,10205
37.945,5958
38,4240
38.055,3497
38.11,3044
38.165,2805
38.22,2585
38.275,2482
38.33,2356
38.385,2223
38.44,2147
38.495,2104
38.55,2071
38.605,2050
38.66,2008
38.715,2007
38.77,2009
38.825,2019
38.88,2030
38.935,2032
38.99,2051
39.045,2097
39.1,2103
39.155,2098
39.21,2198
39.265,2291
39.32,2356
39.375,2481
39.43,2546
39.485,2864
39.54,3247
39.595,4085
39.65,5378
39.705,7872
39.76,11521
39.815,11982
39.87,7318
39.925,4586
39.98,3496
40.035,2911
40.09,2623
40.145,2535
40.2,2385
40.255,2315
40.31,2271
40.365,2259
40.42,2249
40.475,2312
40.53,2326
40.585,2442
40.64,2576
40.695,2768
40.75,3003
40.805,3315
40.86,3822
40.915,4843
40.97,6458
41.025,9096
41.08,14115
41.135,22311
41.19,25338
41.245,15070
41.3,8454
41.355,5638
41.41,4320
41.465,3681
41.52,3296
41.575,3275
41.63,3367
41.685,3767
41.74,4305
41.795,3851
41.85,2976
41.905,2581
41.96,2446
42.015,2421
42.07,2487
42.125,2567
42.18,2834
42.235,3270
42.29,4178
42.345,5562
42.4,6766
42.455,6619
42.51,7889
42.565,10560
42.62,9955
42.675,6022
42.73,3973
42.785,3198
42.84,2849
42.895,2609
42.95,2406
43.005,2373
43.06,2413
43.115,2590
43.17,2895
43.225,3513
43.28,4235
43.335,3801
43.39,2843
43.445,2413
43.5,2345
43.555,2325
43.61,2382
43.665,2484
43.72,2684
43.775,2945
43.83,3382
43.885,3584
43.94,3755
43.995,4137
44.05,4739
44.105,5774
44.16,7581
44.215,11121
44.27,16212
44.325,18521
44.38,15701
44.435,16434
44.49,19278
44.545,15625
44.6,8859
44.655,5778
44.71,4300
44.765,3539
44.82,3017
44.875,2706
44.93,2428
44.985,2283
45.04,2136
45.095,2032
45.15,1911
45.205,1848
45.26,1859
45.315,1758
45.37,1749
45.425,1731
45.48,1740
45.535,1717
45.59,1698
45.645,1692
45.7,1635
45.755,1667
45.81,1652
45.865,1622
45.92,1592
45.975,1635
46.03,1640
46.085,1620
46.14,1653
46.195,1674
46.25,1699
46.305,1712
46.36,1734
46.415,1826
46.47,1886
46.525,2031
46.58,2372
46.635,2954
46.69,4154
46.745,6039
46.8,6568
46.855,4200
46.91,2788
46.965,2209
47.02,1924
47.075,1835
47.13,1699
47.185,1676
47.24,1605
47.295,1573
47.35,1527
47.405,1505
47.46,1444
47.515,1480
47.57,1502
47.625,1427
47.68,1436
47.735,1473
47.79,1478
47.845,1453
47.9,1445
47.955,1437
48.01,1474
48.065,1461
48.12,1509
48.175,1528
48.23,1557
48.285,1553
48.34,1578
48.395,1548
48.45,1551
48.505,1543
48.56,1498
48.615,1500
48.67,1546
48.725,1526
48.78,1622
48.835,1600
48.89,1714
48.945,1878
49,2136
49.055,2683
49.11,3455
49.165,4593
49.22,4571
49.275,3127
49.33,2324
49.385,1998
49.44,1810
49.495,1719
49.55,1707
49.605,1848
49.66,2058
49.715,2193
49.77,1870
49.825,1587
49.88,1544
49.935,1422
49.99,1391
50.045,1403
50.1,1337
50.155,1333
50.21,1362
50.265,1304
50.32,1342
50.375,1346
50.43,1387
50.485,1350
50.54,1366
50.595,1384
50.65,1384
50.705,1418
50.76,1499
50.815,1529
50.87,1529
50.925,1474
50.98,1416
51.035,1380
51.09,1384
51.145,1375
51.2,1373
51.255,1362
51.31,1365
51.365,1365
51.42,1322
51.475,1320
51.53,1297
51.585,1311
51.64,1278
51.695,1310
51.75,1347
51.805,1340
51.86,1363
51.915,1332
51.97,1371
52.025,1476
52.08,1494
52.135,1600
52.19,1786
52.245,1931
52.3,1867
52.355,1738
52.41,1708
52.465,1678
52.52,1668
52.575,1697
52.63,1738
52.685,1897
52.74,2199
52.795,2698
52.85,3651
52.905,4508
52.96,3391
53.015,2421
53.07,1976
53.125,1821
53.18,1742
53.235,1723
53.29,1702
53.345,1762
53.4,1827
53.455,2017
53.51,2238
53.565,2850
53.62,3957
53.675,5747
53.73,6303
53.785,4182
53.84,2817
53.895,2191
53.95,1910
54.005,1766
54.06,1666
54.115,1563
54.17,1512
54.225,1492
54.28,1436
54.335,1390
54.39,1391
54.445,1339
54.5,1345
54.555,1318
54.61,1299
54.665,1296
54.72,1304
54.775,1283
54.83,1303
54.885,1284
54.94,1294
54.995,1319
55.05,1327
55.105,1386
55.16,1390
55.215,1482
55.27,1637
55.325,1881
55.38,2403
55.435,3014
55.49,3033
55.545,2192
55.6,1679
55.655,1536
55.71,1425
55.765,1340
55.82,1322
55.875,1285
55.93,1312
55.985,1279
56.04,1275
56.095,1259
56.15,1253
56.205,1216
56.26,1261
56.315,1255
56.37,1261
56.425,1284
56.48,1302
56.535,1317
56.59,1353
56.645,1375
56.7,1439
56.755,1466
56.81,1559
56.865,1677
56.92,1961
56.975,2310
57.03,3092
57.085,3816
57.14,3498
57.195,2648
57.25,2253
57.305,2131
57.36,2015
57.415,1863
57.47,1724
57.525,1713
57.58,1776
57.635,1839
57.69,2183
57.745,2664
57.8,3189
57.855,3353
57.91,3090
57.965,2303
58.02,1934
58.075,1695
58.13,1642
58.185,1619
58.24,1630
58.295,1702
58.35,1788
58.405,2101
58.46,2443
58.515,2497
58.57,2321
58.625,2447
58.68,2846
58.735,3771
58.79,4044
58.845,3005
58.9,2353
58.955,2102
59.01,2159
59.065,2406
59.12,2832
59.175,2915
59.23,2334
59.285,1995
59.34,1726
59.395,1501
59.45,1405
59.505,1384
59.56,1344
59.615,1298
59.67,1274
59.725,1255
59.78,1286
59.835,1267
59.89,1239
59.945,1258
60,1240
60.055,1213
60.11,1242
60.165,1254
60.22,1260
60.275,1283
60.33,1317
60.385,1460
60.44,1680
60.495,1869
60.55,1715
60.605,1505
60.66,1313
60.715,1304
60.77,1209
60.825,1214
60.88,1211
60.935,1207
60.99,1201
61.045,1186
61.1,1192
61.155,1197
61.21,1172
61.265,1177
61.32,1180
61.375,1187
61.43,1217
61.485,1193
61.54,1174
61.595,1174
61.65,1205
61.705,1175
61.76,1174
61.815,1185
61.87,1216
61.925,1222
61.98,1217
62.035,1209
62.09,1165
62.145,1180
62.2,1187
62.255,1184
62.31,1212
62.365,1191
62.42,1204
62.475,1175
62.53,1192
62.585,1152
62.64,1225
62.695,1226
62.75,1227
62.805,1248
62.86,1330
62.915,1307
62.97,1319
63.025,1364
63.08,1394
63.135,1448
63.19,1464
63.245,1617
63.3,1663
63.355,1778
63.41,2019
63.465,2442
63.52,3114
63.575,4316
63.63,5605
63.685,5650
63.74,3847
63.795,2780
63.85,2222
63.905,2002
63.96,1836
64.015,1731
64.07,1648
64.125,1618
64.18,1576
64.235,1559
64.29,1556
64.345,1559
64.4,1554
64.455,1645
64.51,1758
64.565,1986
64.62,2317
64.675,2427
64.73,2086
64.785,1824
64.84,1692
64.895,1683
64.95,1701
65.005,1728
65.06,1838
65.115,1885
65.17,2080
65.225,2314
65.28,2605
65.335,2792
65.39,2744
65.445,2908
65.5,3357
65.555,4046
65.61,5100
65.665,6714
65.72,7560
65.775,8017
65.83,9865
65.885,12275
65.94,13625
65.995,11275
66.05,7158
66.105,4923
66.16,3951
66.215,3444
66.27,3012
66.325,2600
66.38,2289
66.435,2159
66.49,1956
66.545,1876
66.6,1815
66.655,1735
66.71,1662
66.765,1660
66.82,1590
66.875,1568
66.93,1557
66.985,1568
67.04,1642
67.095,1760
67.15,1805
67.205,1748
67.26,1840
67.315,2039
67.37,2280
67.425,2002
67.48,1680
67.535,1510
67.59,1424
67.645,1433
67.7,1376
67.755,1342
67.81,1331
67.865,1324
67.92,1315
67.975,1354
68.03,1338
68.085,1361
68.14,1361
68.195,1414
68.25,1454
68.305,1549
68.36,1736
68.415,1799
68.47,1677
68.525,1533
68.58,1530
68.635,1520
68.69,1581
68.745,1665
68.8,1864
68.855,2126
68.91,2330
68.965,2342
69.02,2274
69.075,2610
69.13,3126
69.185,3501
69.24,3034
69.295,2691
69.35,2838
69.405,3195
69.46,3287
69.515,2852
69.57,2236
69.625,1949
69.68,1866
69.735,1727
69.79,1634
69.845,1534
69.9,1500
69.955,1507
70.01,1539
70.065,1576
70.12,1669
70.175,1741
70.23,1707
70.285,1494
70.34,1517
70.395,1499
70.45,1543
70.505,1547
70.56,1614
70.615,1717
70.67,1870
70.725,2158
70.78,2643
70.835,2986
70.89,2699
70.945,2188
71,1895
71.055,1752
71.11,1729
71.165,1772
71.22,1857
71.275,2074
71.33,2371
71.385,2495
71.44,2825
71.495,3535
71.55,4605
71.605,4590
71.66,3276
71.715,2352
71.77,1944
71.825,1702
71.88,1618
71.935,1517
71.99,1492
72.045,1420
72.1,1404
72.155,1367
72.21,1370
72.265,1359
72.32,1363
72.375,1367
72.43,1374
72.485,1414
72.54,1449
72.595,1421
72.65,1475
72.705,1459
72.76,1523
72.815,1566
72.87,1572
72.925,1693
72.98,1781
73.035,1878
73.09,2142
73.145,2533
73.2,3263
73.255,4317
73.31,5190
73.365,5587
73.42,5854
73.475,4625
73.53,3252
73.585,2539
73.64,2154
73.695,1957
73.75,1796
73.805,1680
73.86,1619
73.915,1603
73.97,1594
74.025,1607
74.08,1645
74.135,1630
74.19,1716
74.245,1812
74.3,2076
74.355,2437
74.41,3214
74.465,4137
74.52,4346
74.575,3378
74.63,2487
74.685,2124
74.74,1941
74.795,1797
74.85,1643
74.905,1588
74.96,1530
75.015,1546
75.07,1514
75.125,1534
75.18,1557
75.235,1580
75.29,1655
75.345,1624
75.4,1755
75.455,1896
75.51,2116
75.565,2551
75.62,3388
75.675,4193
75.73,3986
75.785,3091
75.84,2461
75.895,2244
75.95,2294
76.005,2295
76.06,2253
76.115,2346
76.17,2712
76.225,2765
76.28,2410
76.335,2135
76.39,2083
76.445,2032
76.5,1944
76.555,1871
76.61,1918
76.665,2175
76.72,2490
76.775,2663
76.83,2323
76.885,1882
76.94,1637
76.995,1546
77.05,1500
77.105,1458
77.16,1417
77.215,1359
77.27,1382
77.325,1403
77.38,1401
77.435,1435
77.49,1542
77.545,1643
77.6,1714
77.655,1582
77.71,1457
77.765,1425
77.82,1421
77.875,1355
77.93,1405
77.985,1385
78.04,1416
78.095,1477
78.15,1512
78.205,1526
78.26,1541
78.315,1502
78.37,1527
78.425,1644
78.48,1723
78.535,1838
78.59,2125
78.645,2586
78.7,3381
78.755,4389
78.81,4490
78.865,3410
78.92,2500
78.975,2119
79.03,1858
79.085,1705
79.14,1613
79.195,1553
79.25,1539
79.305,1494
79.36,1491
79.415,1448
79.47,1455
79.525,1491
79.58,1467
79.635,1474
79.69,1495
79.745,1590
79.8,1615
79.855,1718
79.91,1915
79.965,2202
80.02,2632
80.075,3004
80.13,2842
80.185,2682
80.24,2872
80.295,3286
80.35,3670
80.405,3448
80.46,3365
80.515,3777
80.57,4425
80.625,4225
80.68,3695
80.735,3694
80.79,3900
80.845,3550
80.9,2731
80.955,2234
81.01,1916
81.065,1769
81.12,1700
81.175,1631
81.23,1642
81.285,1607
81.34,1621
81.395,1688
81.45,1932
81.505,2113
81.56,2132
81.615,1866
81.67,1700
81.725,1584
81.78,1519
81.835,1436
81.89,1337
81.945,1369
82,1299
82.055,1260
82.11,1329
82.165,1358
82.22,1413
82.275,1459
82.33,1622
82.385,1839
82.44,1927
82.495,1711
82.55,1512
82.605,1445
82.66,1440
82.715,1473
82.77,1569
82.825,1643
82.88,1499
82.935,1431
82.99,1420
83.045,1373
83.1,1467
83.155,1578
83.21,1524
83.265,1420
83.32,1311
83.375,1303
83.43,1262
83.485,1298
83.54,1282
83.595,1318
83.65,1369
83.705,1375
83.76,1506
83.815,1668
83.87,1930
83.925,2132
83.98,2062
84.035,1794
84.09,1612
84.145,1420
84.2,1346
84.255,1279
84.31,1229
84.365,1222
84.42,1217
84.475,1209
84.53,1159
84.585,1150
84.64,1138
84.695,1170
84.75,1161
84.805,1146
84.86,1145
84.915,1138
84.97,1164
85.025,1143
85.08,1138
85.135,1130
85.19,1154
85.245,1129
85.3,1158
85.355,1151
85.41,1155
85.465,1155
85.52,1170
85.575,1211
85.63,1232
85.685,1263
85.74,1401
85.795,1492
85.85,1553
85.905,1376
85.96,1271
86.015,1262
86.07,1174
86.125,1220
86.18,1169
86.235,1195
86.29,1156
86.345,1168
86.4,1183
86.455,1179
86.51,1200
86.565,1204
86.62,1212
86.675,1189
86.73,1149
86.785,1116
86.84,1174
86.895,1176
86.95,1156
87.005,1166
87.06,1211
87.115,1168
87.17,1222
87.225,1255
87.28,1230
87.335,1323
87.39,1411
87.445,1410
87.5,1480
87.555,1561
87.61,1603
87.665,1737
87.72,2009
87.775,2097
87.83,2000
87.885,1984
87.94,2167
87.995,2283
88.05,2215
88.105,2252
88.16,2493
88.215,2395
88.27,2124
88.325,1813
88.38,1646
88.435,1513
88.49,1501
88.545,1413
88.6,1434
88.655,1402
88.71,1407
88.765,1429
88.82,1463
88.875,1575
88.93,1609
88.985,1670
89.04,1877
89.095,2160
89.15,2643
89.205,2891
89.26,3027
89.315,3158
89.37,3444
89.425,3376
89.48,2814
89.535,2262
89.59,1877
89.645,1651
89.7,1585
89.755,1473
89.81,1414
89.865,1326
89.92,1350
89.975,1317
90.03,1250
90.085,1275
90.14,1229
90.195,1262
90.25,1213
90.305,1220
90.36,1202
90.415,1190
90.47,1190
90.525,1185
90.58,1179
90.635,1182
90.69,1155
90.745,1179
90.8,1174
90.855,1168
90.91,1191
90.965,1165
91.02,1212
91.075,1214
91.13,1190
91.185,1214
91.24,1209
91.295,1213
91.35,1243
91.405,1276
91.46,1253
91.515,1303
91.57,1407
91.625,1505
91.68,1580
91.735,1542
91.79,1407
91.845,1382
91.9,1360
91.955,1318
92.01,1373
92.065,1463
92.12,1619
92.175,1745
92.23,1877
92.285,1892
92.34,1691
92.395,1533
92.45,1536
92.505,1505
92.56,1585
92.615,1751
92.67,1759
92.725,1675
92.78,1519
92.835,1378
92.89,1368
92.945,1289
93,1308
93.055,1288
93.11,1270
93.165,1274
93.22,1281
93.275,1269
93.33,1288
93.385,1283
93.44,1331
93.495,1335
93.55,1371
93.605,1376
93.66,1372
93.715,1388
93.77,1351
93.825,1399
93.88,1465
93.935,1525
93.99,1521
94.045,1533
94.1,1589
94.155,1649
94.21,1761
94.265,1924
94.32,2262
94.375,2809
94.43,3479
94.485,3849
94.54,3560
94.595,3008
94.65,2460
94.705,2054
94.76,1863
94.815,1738
94.87,1700
94.925,1637
94.94,1614