File: data/xrd_icdd_PDF/00-063-0399 (PD3).csv
5,401
5.08,405
5.16,411
5.24,403
5.32,368
5.4,397
5.48,390
5.56,366
5.64,365
5.72,376
5.8,364
5.88,328
5.96,340
6.04,332
6.12,327
6.2,386
6.28,331
6.36,377
6.44,348
6.52,353
6.6,307
6.68,316
6.76,297
6.84,331
6.92,369
7,378
7.08,354
7.16,295
7.24,354
7.32,328
7.4,348
7.48,270
7.56,307
7.64,319
7.72,302
7.8,278
7.88,307
7.96,324
8.04,283
8.12,319
8.2,283
8.28,260
8.36,260
8.44,283
8.52,253
8.6,286
8.68,260
8.76,307
8.84,256
8.92,246
9,236
9.08,260
9.16,233
9.24,233
9.32,283
9.4,236
9.48,265
9.56,236
9.64,224
9.72,283
9.8,260
9.88,283
9.96,233
10.04,254
10.12,224
10.2,229
10.28,213
10.36,236
10.44,213
10.52,236
10.6,225
10.68,209
10.76,236
10.84,236
10.92,242
11,265
11.08,189
11.16,189
11.24,225
11.32,236
11.4,195
11.48,260
11.56,185
11.64,213
11.72,248
11.8,236
11.88,213
11.96,189
12.04,175
12.12,213
12.2,177
12.28,189
12.36,213
12.44,165
12.52,201
12.6,236
12.68,236
12.76,543
12.84,591
12.92,236
13,189
13.08,216
13.16,244
13.24,174
13.32,220
13.4,217
13.48,199
13.56,217
13.64,218
13.72,157
13.8,165
13.88,149
13.96,162
14.04,156
14.12,168
14.2,165
14.28,201
14.36,154
14.44,201
14.52,165
14.6,142
14.68,189
14.76,189
14.84,201
14.92,142
15,154
15.08,165
15.16,142
15.24,165
15.32,165
15.4,154
15.48,165
15.56,142
15.64,142
15.72,165
15.8,201
15.88,142
15.96,154
16.04,118
16.12,154
16.2,142
16.28,130
16.36,177
16.44,142
16.52,118
16.6,154
16.68,142
16.76,201
16.84,189
16.92,236
17,331
17.08,779
17.16,283
17.24,158
17.32,151
17.4,131
17.48,148
17.56,118
17.64,152
17.72,128
17.8,175
17.88,126
17.96,118
18.04,111
18.12,143
18.2,152
18.28,200
18.36,186
18.44,136
18.52,160
18.6,120
18.68,108
18.76,168
18.84,145
18.92,169
19,121
19.08,143
19.16,114
19.24,120
19.32,130
19.4,165
19.48,188
19.56,118
19.64,118
19.72,142
19.8,118
19.88,165
19.96,142
20.04,94
20.12,118
20.2,165
20.28,118
20.36,142
20.44,118
20.52,142
20.6,155
20.68,142
20.76,94
20.84,130
20.92,142
21,106
21.08,164
21.16,142
21.24,201
21.32,496
21.4,874
21.48,354
21.56,142
21.64,130
21.72,142
21.8,130
21.88,94
21.96,118
22.04,94
22.12,94
22.2,130
22.28,165
22.36,94
22.44,189
22.52,155
22.6,142
22.68,142
22.76,142
22.84,155
22.92,165
23,142
23.08,204
23.16,142
23.24,118
23.32,103
23.4,142
23.48,142
23.56,165
23.64,142
23.72,189
23.8,283
23.88,567
23.96,992
24.04,591
24.12,236
24.2,165
24.28,154
24.36,118
24.44,165
24.52,118
24.6,142
24.68,165
24.76,136
24.84,124
24.92,165
25,118
25.08,106
25.16,154
25.24,189
25.32,177
25.4,213
25.48,189
25.56,213
25.64,331
25.72,756
25.8,2008
25.88,1417
25.96,354
26.04,189
26.12,154
26.2,260
26.28,260
26.36,425
26.44,874
26.52,661
26.6,319
26.68,236
26.76,165
26.84,142
26.92,165
27,130
27.08,165
27.16,94
27.24,165
27.32,118
27.4,189
27.48,130
27.56,106
27.64,165
27.72,165
27.8,142
27.88,142
27.96,165
28.04,118
28.12,142
28.2,154
28.28,165
28.36,165
28.44,129
28.52,160
28.6,145
28.68,148
28.76,102
28.84,104
28.92,126
29,104
29.08,90
29.16,163
29.24,117
29.32,120
29.4,125
29.48,102
29.56,92
29.64,154
29.72,157
29.8,142
29.88,118
29.96,201
30.04,201
30.12,272
30.2,278
30.28,297
30.36,165
30.44,189
30.52,165
30.6,165
30.68,213
30.76,213
30.84,236
30.92,402
31,1618
31.08,1630
31.16,685
31.24,236
31.32,224
31.4,196
31.48,154
31.56,140
31.64,159
31.72,164
31.8,172
31.88,166
31.96,132
32.04,164
32.12,160
32.2,138
32.28,146
32.36,163
32.44,158
32.52,126
32.6,145
32.68,142
32.76,151
32.84,220
32.92,174
33,230
33.08,215
33.16,236
33.24,213
33.32,254
33.4,292
33.48,434
33.56,898
33.64,2622
33.72,2386
33.8,1335
33.88,874
33.96,635
34.04,741
34.12,1258
34.2,3236
34.28,8385
34.36,8149
34.44,9979
34.52,8465
34.6,5541
34.68,4110
34.76,12542
34.84,16676
34.92,9306
35,3047
35.08,4632
35.16,3663
35.24,1953
35.32,847
35.4,520
35.48,424
35.56,353
35.64,300
35.72,331
35.8,260
35.88,283
35.96,425
36.04,543
36.12,1653
36.2,1181
36.28,626
36.36,413
36.44,437
36.52,449
36.6,898
36.68,2752
36.76,7677
36.84,5149
36.92,1701
37,753
37.08,452
37.16,309
37.24,291
37.32,250
37.4,239
37.48,184
37.56,181
37.64,202
37.72,180
37.8,165
37.88,240
37.96,198
38.04,205
38.12,217
38.2,203
38.28,205
38.36,284
38.44,319
38.52,331
38.6,378
38.68,378
38.76,614
38.84,1110
38.92,3342
39,15802
39.08,14078
39.16,7865
39.24,1677
39.32,874
39.4,555
39.48,529
39.56,461
39.64,1016
39.72,3614
39.8,6082
39.88,3647
39.96,1470
40.04,921
40.12,616
40.2,460
40.28,312
40.36,288
40.44,191
40.52,217
40.6,222
40.68,203
40.76,177
40.84,205
40.92,221
41,180
41.08,216
41.16,181
41.24,152
41.32,154
41.4,180
41.48,153
41.56,189
41.64,166
41.72,216
41.8,169
41.88,164
41.96,158
42.04,189
42.12,169
42.2,181
42.28,246
42.36,220
42.44,282
42.52,313
42.6,425
42.68,791
42.76,2775
42.84,4263
42.92,3012
43,1594
43.08,803
43.16,402
43.24,407
43.32,454
43.4,947
43.48,3391
43.56,3361
43.64,2362
43.72,900
43.8,442
43.88,280
43.96,228
44.04,234
44.12,251
44.2,227
44.28,223
44.36,173
44.44,171
44.52,189
44.6,165
44.68,149
44.76,220
44.84,173
44.92,174
45,179
45.08,152
45.16,142
45.24,202
45.32,106
45.4,189
45.48,142
45.56,189
45.64,177
45.72,177
45.8,236
45.88,283
45.96,213
46.04,142
46.12,154
46.2,165
46.28,165
46.36,165
46.44,189
46.52,189
46.6,213
46.68,165
46.76,213
46.84,154
46.92,154
47,189
47.08,106
47.16,283
47.24,307
47.32,461
47.4,461
47.48,378
47.56,236
47.64,236
47.72,213
47.8,236
47.88,390
47.96,638
48.04,496
48.12,236
48.2,233
48.28,219
48.36,184
48.44,216
48.52,214
48.6,195
48.68,201
48.76,224
48.84,245
48.92,285
49,316
49.08,386
49.16,981
49.24,4157
49.32,2291
49.4,2279
49.48,520
49.56,260
49.64,236
49.72,189
49.8,189
49.88,213
49.96,154
50.04,165
50.12,154
50.2,142
50.28,165
50.36,118
50.44,177
50.52,165
50.6,142
50.68,248
50.76,413
50.84,354
50.92,342
51,283
51.08,243
51.16,244
51.24,263
51.32,282
51.4,262
51.48,210
51.56,198
51.64,210
51.72,202
51.8,181
51.88,230
51.96,210
52.04,189
52.12,260
52.2,236
52.28,248
52.36,472
52.44,673
52.52,378
52.6,402
52.68,496
52.76,1039
52.84,2433
52.92,1512
53,1937
53.08,940
53.16,802
53.24,481
53.32,329
53.4,283
53.48,213
53.56,236
53.64,224
53.72,189
53.8,189
53.88,154
53.96,118
54.04,142
54.12,177
54.2,142
54.28,213
54.36,354
54.44,779
54.52,1866
54.6,850
54.68,827
54.76,354
54.84,236
54.92,201
55,240
55.08,200
55.16,177
55.24,164
55.32,163
55.4,236
55.48,229
55.56,235
55.64,206
55.72,245
55.8,260
55.88,295
55.96,425
56.04,1051
56.12,921
56.2,850
56.28,520
56.36,390
56.44,350
56.52,520
56.6,1134
56.68,1571
56.76,898
56.84,827
56.92,543
57,496
57.08,449
57.16,496
57.24,354
57.32,331
57.4,260
57.48,271
57.56,234
57.64,220
57.72,224
57.8,260
57.88,457
57.96,1264
58.04,3071
58.12,1984
58.2,2764
58.28,1523
58.36,1488
58.44,921
58.52,1960
58.6,2433
58.68,1311
58.76,1476
58.84,484
58.92,272
59,295
59.08,267
59.16,231
59.24,274
59.32,272
59.4,369
59.48,850
59.56,2669
59.64,1972
59.72,2043
59.8,2338
59.88,1630
59.96,1252
60.04,874
60.12,531
60.2,378
60.28,614
60.36,921
60.44,898
60.52,638
60.6,449
60.68,331
60.76,260
60.84,189
60.92,189
61,165
61.08,189
61.16,142
61.24,142
61.32,130
61.4,177
61.48,177
61.56,223
61.64,142
61.72,236
61.8,213
61.88,189
61.96,154
62.04,142
62.12,189
62.2,165
62.28,154
62.36,177
62.44,142
62.52,236
62.6,236
62.68,236
62.76,260
62.84,307
62.92,543
63,425
63.08,496
63.16,827
63.24,709
63.32,602
63.4,591
63.48,342
63.56,189
63.64,177
63.72,165
63.8,201
63.88,154
63.96,260
64.04,472
64.12,709
64.2,402
64.28,591
64.36,366
64.44,272
64.52,354
64.6,685
64.68,472
64.76,449
64.84,402
64.92,260
65,213
65.08,342
65.16,1039
65.24,1240
65.32,768
65.4,898
65.48,342
65.56,224
65.64,213
65.72,165
65.8,213
65.88,189
65.96,165
66.04,236
66.12,165
66.2,283
66.28,283
66.36,342
66.44,307
66.52,437
66.6,673
66.68,1583
66.76,3295
66.84,2102
66.92,1925
67,1299
67.08,779
67.16,862
67.24,508
67.32,661
67.4,472
67.48,319
67.56,307
67.64,402
67.72,449
67.8,591
67.88,461
67.96,331
68.04,236
68.12,260
68.2,201
68.28,213
68.36,189
68.44,213
68.52,165
68.6,165
68.68,177
68.76,189
68.84,201
68.92,224
69,189
69.08,283
69.16,354
69.24,520
69.32,354
69.4,425
69.48,307
69.56,224
69.64,189
69.72,213
69.8,142
69.88,189
69.96,165
70.04,189
70.12,283
70.2,390
70.28,354
70.36,260
70.44,319
70.52,260
70.6,319
70.68,425
70.76,520
70.84,567
70.92,567
71,496
71.08,413
71.16,425
71.24,366
71.32,283
71.4,260
71.48,165
71.56,213
71.64,283
71.72,213
71.8,201
71.88,248
71.96,283
72.04,342
72.12,484
72.2,567
72.28,791
72.36,2315
72.44,3141
72.52,1488
72.6,1878
72.68,1311
72.76,543
72.84,390
72.92,236
73,331
73.08,260
73.16,236
73.24,283
73.32,213
73.4,189
73.48,260
73.56,283
73.64,236
73.72,354
73.8,378
73.88,496
73.96,520
74.04,543
74.12,850
74.2,1205
74.28,779
74.36,685
74.44,709
74.52,390
74.6,331
74.68,354
74.76,591
74.84,709
74.92,520
75,567
75.08,402
75.16,331
75.24,283
75.32,199
75.4,201
75.48,191
75.56,307
75.64,531
75.72,720
75.8,496
75.88,543
75.96,425
76.04,520
76.12,567
76.2,354
76.28,333
76.36,382
76.44,421
76.52,815
76.6,1110
76.68,709
76.76,874
76.84,968
76.92,508
77,531
77.08,378
77.16,293
77.24,218
77.32,199
77.4,214
77.48,354
77.56,850
77.64,945
77.72,614
77.8,614
77.88,685
77.96,543
78.04,614
78.12,543
78.2,425
78.28,354
78.36,472
78.44,508
78.52,520
78.6,354
78.68,413
78.76,307
78.84,283
78.92,224
79,224
79.08,260
79.16,189
79.24,248
79.32,378
79.4,331
79.48,354
79.56,543
79.64,425
79.72,437
79.8,661
79.88,614
79.96,591
80.04,1311
80.12,1783
80.2,886
80.28,732
80.36,992
80.44,425
80.52,260
80.6,224
80.68,189
80.76,213
80.84,213
80.92,236
81,260
81.08,307
81.16,307
81.24,236
81.32,213
81.4,165
81.48,224
81.56,142
81.64,177
81.72,224
81.8,189
81.88,118
81.96,165
82.04,118
82.12,165
82.2,142
82.28,142
82.36,236
82.44,118
82.52,94
82.6,213
82.68,165
82.76,118
82.84,118
82.92,201
83,94
83.08,142
83.16,189
83.24,142
83.32,189
83.4,201
83.48,189
83.56,142
83.64,248
83.72,213
83.8,189
83.88,307
83.96,614
84.04,496
84.12,307
84.2,331
84.28,331
84.36,224
84.44,213
84.52,177
84.6,201
84.68,201
84.76,219
84.84,201
84.92,165
85,331
85.08,449
85.16,591
85.24,390
85.32,307
85.4,449
85.48,378
85.56,366
85.64,520
85.72,307
85.8,307
85.88,354
85.96,236
86.04,189
86.12,236
86.2,307
86.28,295
86.36,248
86.44,272
86.52,272
86.6,165
86.68,236
86.76,189
86.84,189
86.92,142
87,118
87.08,165
87.16,165
87.24,189
87.32,142
87.4,142
87.48,260
87.56,189
87.64,283
87.72,363
87.8,350
87.88,275
87.96,236
88.04,213
88.12,165
88.2,189
88.28,213
88.36,213
88.44,213
88.52,165
88.6,272
88.68,213
88.76,213
88.84,224
88.92,319
89,213
89.08,260
89.16,236
89.24,236
89.32,189
89.4,260
89.48,236
89.56,236
89.64,224
89.72,236
89.8,236
89.88,236
89.96,402
90.04,638
90.12,425
90.2,402
90.28,449
90.36,484
90.44,449
90.52,331
90.6,543
90.68,768
90.76,378
90.84,472
90.92,496
91,496
91.08,378
91.16,213
91.24,283
91.32,236
91.4,260
91.48,213
91.56,213
91.64,236
91.72,224
91.8,201
91.88,165
91.96,142
92.04,118
92.12,106
92.2,165
92.28,177
92.36,213
92.44,213
92.52,165
92.6,165
92.68,154
92.76,177
92.84,189
92.92,236
93,189
93.08,201
93.16,201
93.24,189
93.32,130
93.4,189
93.48,154
93.56,260
93.64,165
93.72,295
93.8,402
93.88,425
93.96,331
94.04,378
94.12,461
94.2,555
94.28,531
94.36,354
94.44,283
94.52,331
94.6,472
94.68,260
94.76,213
94.84,213
94.92,224
95,189
95.08,193
95.16,261
95.24,252
95.32,208
95.4,232
95.48,297
95.56,346
95.64,351
95.72,363
95.8,454
95.88,446
95.96,350
96.04,308
96.12,340
96.2,429
96.28,508
96.36,567
96.44,472
96.52,331
96.6,402
96.68,402
96.76,354
96.84,319
96.92,313
97,283
97.08,319
97.16,234
97.24,343
97.32,248
97.4,248
97.48,295
97.56,189
97.64,189
97.72,283
97.8,260
97.88,165
97.96,165
98.04,189
98.12,189
98.2,165
98.28,142
98.36,213
98.44,202
98.52,297
98.6,283
98.68,354
98.76,415
98.84,547
98.92,655
99,509
99.08,401
99.16,425
99.24,307
99.32,319
99.4,283
99.48,142
99.56,331
99.64,177
99.72,402
99.8,354
99.88,378
99.96,177
100.04,307
100.12,331
100.2,213
100.28,319
100.36,236
100.44,213
100.52,201
100.6,236
100.68,248
100.76,260
100.84,236
100.92,189
101,224
101.08,307
101.16,496
101.24,472
101.32,437
101.4,520
101.48,402
101.56,425
101.64,342
101.72,413
101.8,331
101.88,283
101.96,402
102.04,472
102.12,661
102.2,874
102.28,567
102.36,461
102.44,461
102.52,496
102.6,543
102.68,354
102.76,354
102.84,224
102.92,260
103,295
103.08,213
103.16,201
103.24,142
103.32,213
103.4,165
103.48,177
103.56,189
103.64,165
103.72,165
103.8,165
103.88,189
103.96,189
104.04,248
104.12,378
104.2,591
104.28,898
104.36,472
104.44,496
104.52,366
104.6,543
104.68,543
104.76,425
104.84,354
104.92,331
105,319
105.08,236
105.16,307
105.24,201
105.32,224
105.4,189
105.48,189
105.56,236
105.64,154
105.72,189
105.8,283
105.88,307
105.96,283
106.04,213
106.12,366
106.2,342
106.28,331
106.36,307
106.44,437
106.52,484
106.6,626
106.68,614
106.76,378
106.84,342
106.92,449
107,520
107.08,378
107.16,354
107.24,331
107.32,260
107.4,224
107.48,213
107.56,213
107.64,260
107.72,189
107.8,165
107.88,283
107.96,283
108.04,260
108.12,213
108.2,236
108.28,236
108.36,331
108.44,331
108.52,472
108.6,709
108.68,461
108.76,295
108.84,283
108.92,449
109,390
109.08,283
109.16,402
109.24,319
109.32,319
109.4,331
109.48,425
109.56,425
109.64,319
109.72,213
109.8,283
109.88,295
109.96,248
110.04,189
110.12,189
110.2,189
110.28,165
110.36,165
110.44,177
110.52,189
110.6,248
110.68,189
110.76,236
110.84,142
110.92,165
111,260
111.08,189
111.16,213
111.24,283
111.32,213
111.4,224
111.48,213
111.56,236
111.64,260
111.72,307
111.8,354
111.88,472
111.96,791
112.04,1346
112.12,1299
112.2,850
112.28,697
112.36,614
112.44,732
112.52,874
112.6,827
112.68,992
112.76,945
112.84,579
112.92,366
113,425
113.08,661
113.16,779
113.24,673
113.32,390
113.4,425
113.48,402
113.56,390
113.64,331
113.72,331
113.8,260
113.88,189
113.96,283
114.04,201
114.12,165
114.2,154
114.28,165
114.36,165
114.44,213
114.52,201
114.6,130
114.68,165
114.76,189
114.84,224
114.92,165
115,177
115.08,248
115.16,236
115.24,272
115.32,189
115.4,189
115.48,189
115.56,236
115.64,224
115.72,189
115.8,189
115.88,165
115.96,189
116.04,213
116.12,260
116.2,254
116.28,307
116.36,224
116.44,248
116.52,313
116.6,349
116.68,360
116.76,307
116.84,339
116.92,284
117,295
117.08,230
117.16,284
117.24,293
117.32,255
117.4,236
117.48,236
117.56,304
117.64,307
117.72,283
117.8,342
117.88,402
117.96,638
118.04,449
118.12,319
118.2,295
118.28,354
118.36,413
118.44,378
118.52,354
118.6,283
118.68,331
118.76,307
118.84,283
118.92,342
119,378
119.08,413
119.16,354
119.24,413
119.32,378
119.4,378
119.48,413
119.56,378
119.64,378
119.72,260
119.8,307
119.88,283
119.96,272
120.04,189