File: data/xrd_icdd_PDF/00-051-0143 (PD3).csv
5,627
5.1,518
5.2,547
5.3,547
5.4,555
5.5,566
5.6,562
5.7,566
5.8,581
5.9,534
6,555
6.1,552
6.2,597
6.3,543
6.4,562
6.5,542
6.6,552
6.7,569
6.8,617
6.9,590
7,638
7.1,561
7.2,537
7.3,594
7.4,571
7.5,517
7.6,564
7.7,589
7.8,551
7.9,542
8,588
8.1,560
8.2,572
8.3,580
8.4,588
8.5,566
8.6,564
8.7,573
8.8,605
8.9,565
9,589
9.1,567
9.2,608
9.3,628
9.4,614
9.5,631
9.6,610
9.7,601
9.8,661
9.9,702
10,674
10.1,665
10.2,678
10.3,633
10.4,690
10.5,688
10.6,634
10.7,663
10.8,706
10.9,677
11,671
11.1,744
11.2,687
11.3,656
11.4,669
11.5,694
11.6,694
11.7,695
11.8,842
11.9,1663
12,1987
12.1,788
12.2,799
12.3,789
12.4,754
12.5,752
12.6,761
12.7,772
12.8,834
12.9,841
13,769
13.1,758
13.2,806
13.3,764
13.4,770
13.5,812
13.6,743
13.7,760
13.8,797
13.9,797
14,778
14.1,784
14.2,783
14.3,801
14.4,807
14.5,765
14.6,794
14.7,763
14.8,846
14.9,834
15,820
15.1,847
15.2,827
15.3,850
15.4,783
15.5,843
15.6,833
15.7,816
15.8,816
15.9,797
16,866
16.1,815
16.2,871
16.3,909
16.4,942
16.5,833
16.6,904
16.7,906
16.8,1149
16.9,4760
17,1828
17.1,904
17.2,893
17.3,900
17.4,875
17.5,906
17.6,887
17.7,866
17.8,850
17.9,838
18,848
18.1,855
18.2,835
18.3,836
18.4,917
18.5,864
18.6,820
18.7,851
18.8,820
18.9,820
19,844
19.1,839
19.2,829
19.3,802
19.4,828
19.5,841
19.6,816
19.7,836
19.8,847
19.9,830
20,849
20.1,772
20.2,864
20.3,870
20.4,843
20.5,839
20.6,876
20.7,1114
20.8,2239
20.9,1030
21,811
21.1,817
21.2,887
21.3,819
21.4,852
21.5,844
21.6,831
21.7,895
21.8,824
21.9,869
22,846
22.1,837
22.2,856
22.3,873
22.4,820
22.5,828
22.6,782
22.7,804
22.8,812
22.9,825
23,846
23.1,860
23.2,866
23.3,877
23.4,791
23.5,831
23.6,863
23.7,886
23.8,891
23.9,1150
24,3538
24.1,6329
24.2,1469
24.3,1038
24.4,920
24.5,892
24.6,874
24.7,871
24.8,813
24.9,836
25,922
25.1,843
25.2,779
25.3,829
25.4,843
25.5,836
25.6,858
25.7,845
25.8,839
25.9,800
26,897
26.1,870
26.2,854
26.3,879
26.4,888
26.5,916
26.6,991
26.7,1049
26.8,1485
26.9,9266
27,7466
27.1,1506
27.2,1027
27.3,953
27.4,907
27.5,965
27.6,904
27.7,903
27.8,905
27.9,924
28,867
28.1,877
28.2,851
28.3,869
28.4,852
28.5,909
28.6,983
28.7,977
28.8,916
28.9,935
29,970
29.1,1056
29.2,1168
29.3,1265
29.4,1884
29.5,9888
29.6,19404
29.7,4135
29.8,1577
29.9,1193
30,1091
30.1,1049
30.2,952
30.3,925
30.4,895
30.5,942
30.6,921
30.7,909
30.8,863
30.9,906
31,888
31.1,1001
31.2,900
31.3,863
31.4,884
31.5,925
31.6,872
31.7,943
31.8,1153
31.9,1358
32,4297
32.1,2772
32.2,1176
32.3,951
32.4,914
32.5,841
32.6,874
32.7,876
32.8,840
32.9,861
33,908
33.1,882
33.2,836
33.3,878
33.4,843
33.5,868
33.6,836
33.7,876
33.8,926
33.9,937
34,933
34.1,1233
34.2,3888
34.3,2854
34.4,1093
34.5,955
34.6,900
34.7,864
34.8,878
34.9,912
35,859
35.1,875
35.2,830
35.3,838
35.4,878
35.5,874
35.6,940
35.7,892
35.8,827
35.9,835
36,872
36.1,898
36.2,1085
36.3,1320
36.4,4872
36.5,3544
36.6,1342
36.7,999
36.8,951
36.9,904
37,881
37.1,874
37.2,844
37.3,842
37.4,875
37.5,912
37.6,862
37.7,869
37.8,825
37.9,822
38,863
38.1,849
38.2,822
38.3,800
38.4,884
38.5,875
38.6,867
38.7,832
38.8,787
38.9,887
39,810
39.1,841
39.2,861
39.3,826
39.4,847
39.5,837
39.6,823
39.7,854
39.8,848
39.9,854
40,795
40.1,831
40.2,857
40.3,1007
40.4,1742
40.5,1473
40.6,960
40.7,859
40.8,960
40.9,866
41,815
41.1,867
41.2,906
41.3,904
41.4,849
41.5,849
41.6,862
41.7,884
41.8,897
41.9,944
42,979
42.1,1154
42.2,2696
42.3,5614
42.4,3890
42.5,1324
42.6,1056
42.7,918
42.8,873
42.9,873
43,900
43.1,862
43.2,877
43.3,842
43.4,936
43.5,878
43.6,886
43.7,872
43.8,898
43.9,955
44,1106
44.1,2812
44.2,2377
44.3,1539
44.4,1022
44.5,923
44.6,933
44.7,873
44.8,896
44.9,890
45,891
45.1,928
45.2,875
45.3,864
45.4,838
45.5,930
45.6,891
45.7,993
45.8,1486
45.9,3108
46,2313
46.1,1128
46.2,979
46.3,959
46.4,940
46.5,943
46.6,865
46.7,838
46.8,888
46.9,865
47,869
47.1,939
47.2,888
47.3,990
47.4,1214
47.5,3134
47.6,5423
47.7,4033
47.8,1376
47.9,1057
48,945
48.1,927
48.2,926
48.3,891
48.4,904
48.5,876
48.6,912
48.7,892
48.8,830
48.9,859
49,945
49.1,945
49.2,1335
49.3,1676
49.4,1463
49.5,1008
49.6,926
49.7,853
49.8,923
49.9,965
50,882
50.1,897
50.2,908
50.3,901
50.4,868
50.5,914
50.6,916
50.7,993
50.8,2053
50.9,1621
51,1569
51.1,1035
51.2,943
51.3,907
51.4,879
51.5,924
51.6,880
51.7,884
51.8,959
51.9,868
52,871
52.1,884
52.2,923
52.3,1026
52.4,1209
52.5,1215
52.6,963
52.7,915
52.8,895
52.9,846
53,858
53.1,914
53.2,861
53.3,855
53.4,833
53.5,908
53.6,881
53.7,890
53.8,939
53.9,1025
54,1406
54.1,1254
54.2,1135
54.3,944
54.4,881
54.5,937
54.6,881
54.7,906
54.8,876
54.9,942
55,909
55.1,888
55.2,886
55.3,989
55.4,1117
55.5,2159
55.6,1387
55.7,1253
55.8,949
55.9,994
56,900
56.1,967
56.2,960
56.3,999
56.4,966
56.5,1054
56.6,980
56.7,1115
56.8,1190
56.9,2225
57,6343
57.1,3906
57.2,3358
57.3,1418
57.4,1098
57.5,1009
57.6,959
57.7,998
57.8,904
57.9,991
58,954
58.1,950
58.2,998
58.3,1332
58.4,3631
58.5,1926
58.6,2131
58.7,1085
58.8,922
58.9,916
59,915
59.1,905
59.2,880
59.3,920
59.4,892
59.5,837
59.6,899
59.7,893
59.8,954
59.9,1203
60,1170
60.1,1179
60.2,1012
60.3,891
60.4,908
60.5,899
60.6,919
60.7,893
60.8,871
60.9,907
61,949
61.1,1007
61.2,961
61.3,1887
61.4,1538
61.5,1684
61.6,1121
61.7,989
61.8,922
61.9,907
62,976
62.1,923
62.2,896
62.3,907
62.4,863
62.5,944
62.6,1118
62.7,1811
62.8,1524
62.9,1379
63,1154
63.1,986
63.2,925
63.3,912
63.4,853
63.5,904
63.6,877
63.7,874
63.8,852
63.9,899
64,909
64.1,877
64.2,865
64.3,843
64.4,876
64.5,906
64.6,932
64.7,879
64.8,861
64.9,891
65,900
65.1,925
65.2,932
65.3,933
65.4,1140
65.5,2200
65.6,1836
65.7,1797
65.8,1203
65.9,964
66,965
66.1,898
66.2,931
66.3,893
66.4,942
66.5,873
66.6,922
66.7,923
66.8,918
66.9,1057
67,933
67.1,992
67.2,887
67.3,938
67.4,883
67.5,905
67.6,952
67.7,902
67.8,891
67.9,929
68,931
68.1,1077
68.2,1729
68.3,1268
68.4,1295
68.5,1106
68.6,940
68.7,876
68.8,912
68.9,933
69,921
69.1,927
69.2,958
69.3,969
69.4,1077
69.5,1633
69.6,1494
69.7,1347
69.8,1228
69.9,997
70,964
70.1,930
70.2,932
70.3,900
70.4,931
70.5,933
70.6,935
70.7,1104
70.8,1780
70.9,1310
71,1463
71.1,1152
71.2,958
71.3,953
71.4,1038
71.5,927
71.6,909
71.7,918
71.8,954
71.9,948
72,1086
72.1,1250
72.2,1037
72.3,1100
72.4,924
72.5,905
72.6,932
72.7,939
72.8,894
72.9,923
73,922
73.1,938
73.2,925
73.3,1023
73.4,1435
73.5,2698
73.6,1672
73.7,1873
73.8,1316
73.9,1009
74,964
74.1,916
74.2,995
74.3,919
74.4,886
74.5,895
74.6,888
74.7,1003
74.8,1032
74.9,994
75,1001
75.1,866
75.2,914
75.3,883
75.4,949
75.5,886
75.6,918
75.7,931
75.8,916
75.9,987
76,1259
76.1,1414
76.2,1105
76.3,1231
76.4,1018
76.5,899
76.6,949
76.7,983
76.8,962
76.9,952
77,959
77.1,1058
77.2,1286
77.3,1299
77.4,1318
77.5,1204
77.6,1011
77.7,976
77.8,904
77.9,945
78,918
78.1,921
78.2,961
78.3,988
78.4,1009
78.5,1381
78.6,1861
78.7,1242
78.8,1527
78.9,1160
79,1038
79.1,952
79.2,936
79.3,890
79.4,897
79.5,855
79.6,984
79.7,937
79.8,939
79.9,919
80,922
80.1,966
80.2,971
80.3,925
80.4,920
80.5,966
80.6,969
80.7,968
80.8,1036
80.9,1077
81,1431
81.1,1884
81.2,1864
81.3,1557
81.4,1486
81.5,1194
81.6,1031
81.7,1028
81.8,895
81.9,936
82,897
82.1,985
82.2,924
82.3,966
82.4,972
82.5,908
82.6,896
82.7,977
82.8,902
82.9,909
83,883
83.1,937
83.2,996
83.3,1008
83.4,1099
83.5,1293
83.6,1547
83.7,1643
83.8,1231
83.9,1326
84,1174
84.1,1000
84.2,968
84.3,969
84.4,1000
84.5,867
84.6,937
84.7,908
84.8,921
84.9,957
85,894
85.1,954
85.2,939
85.3,936
85.4,973
85.5,892
85.6,974
85.7,918
85.8,919
85.9,920
86,1028
86.1,1320
86.2,1135
86.3,1075
86.4,1111
86.5,1027
86.6,965
86.7,963
86.8,909
86.9,945
87,931
87.1,962
87.2,1005
87.3,1189
87.4,1077
87.5,999
87.6,1041
87.7,949
87.8,976
87.9,944
88,921
88.1,991
88.2,1017
88.3,967
88.4,1059
88.5,1349
88.6,1463
88.7,1213
88.8,1209
88.9,1199
89,1056
89.1,921
89.2,943
89.3,944
89.4,934
89.5,973
89.6,954
89.7,987
89.8,1192
89.9,1057
90,981
90.1,1043
90.2,972
90.3,971
90.4,979
90.5,1032
90.6,950
90.7,927
90.8,936
90.9,967
91,1145
91.1,1586
91.2,1253
91.3,1064
91.4,1268
91.5,1074
91.6,1069
91.7,981
91.8,956
91.9,897
92,946
92.1,985
92.2,1150
92.3,1171
92.4,1047
92.5,1067
92.6,1077
92.7,1060
92.8,971
92.9,953
93,949
93.1,976
93.2,995
93.3,992
93.4,1021
93.5,1263
93.6,1492
93.7,1243
93.8,1167
93.9,1242
94,1088
94.1,989
94.2,980
94.3,901
94.4,950
94.5,934
94.6,1022
94.7,985
94.8,1037
94.9,1070
95,1066
95.1,1043
95.2,998
95.3,980
95.4,966
95.5,908
95.6,1010
95.7,971
95.8,991
95.9,1037
96,1254
96.1,1574
96.2,1271
96.3,1200
96.4,1284
96.5,1276
96.6,1041
96.7,1016
96.8,970
96.9,992
97,965
97.1,921
97.2,979
97.3,967
97.4,991
97.5,1030
97.6,942
97.7,992
97.8,960
97.9,938
98,895
98.1,954
98.2,966
98.3,1042
98.4,1144
98.5,1230
98.6,1104
98.7,1098
98.8,1136
98.9,1002
99,994
99.1,943
99.2,944
99.3,1015
99.4,1019
99.5,1065
99.6,1195
99.7,1316
99.8,1160
99.9,1214
100,1227
100.1,1111
100.2,977
100.3,1008
100.4,945
100.5,932
100.6,1016
100.7,870
100.8,918
100.9,1004
101,981
101.1,1089
101.2,1012
101.3,1004
101.4,1051
101.5,950
101.6,974
101.7,1010
101.8,941
101.9,970
102,963
102.1,951
102.2,1025
102.3,977
102.4,1096
102.5,1018
102.6,991
102.7,995
102.8,1103
102.9,1001
103,1001
103.1,1014
103.2,1002
103.3,1057
103.4,1168
103.5,1408
103.6,2015
103.7,1887
103.8,1508
103.9,1382
104,1576
104.1,1353
104.2,1113
104.3,1041
104.4,1024
104.5,953
104.6,1014
104.7,1006
104.8,1007
104.9,1017
105,953
105.1,965
105.2,1008
105.3,972
105.4,1007
105.5,1009
105.6,964
105.7,939
105.8,1027
105.9,941
106,1073
106.1,1116
106.2,1122
106.3,1090
106.4,984
106.5,1105
106.6,1006
106.7,998
106.8,1002
106.9,988
107,991
107.1,967
107.2,987
107.3,985
107.4,1099
107.5,1054
107.6,1015
107.7,1036
107.8,999
107.9,1029
108,1033
108.1,939
108.2,969
108.3,987
108.4,979
108.5,951
108.6,941
108.7,988
108.8,1116
108.9,1127
109,1028
109.1,1024
109.2,1042
109.3,1064
109.4,1035
109.5,953
109.6,987
109.7,1003
109.8,1009
109.9,1096
110,1148
110.1,1026
110.2,1018
110.3,1029
110.4,1101
110.5,1031
110.6,930
110.7,979
110.8,1048
110.9,1072
111,998
111.1,1004
111.2,1183
111.3,1321
111.4,1282
111.5,1314
111.6,1248
111.7,1237
111.8,1178
111.9,1189
112,1072
112.1,1088
112.2,1015
112.3,977
112.4,1027
112.5,973
112.6,1007
112.7,944
112.8,980
112.9,990
113,975
113.1,956
113.2,894
113.3,971
113.4,1001
113.5,948
113.6,992
113.7,993
113.8,874
113.9,978
114,1019
114.1,973
114.2,1024
114.3,1050
114.4,967
114.5,1009
114.6,1033
114.7,993
114.8,1024
114.9,937
115,960
115.1,1009
115.2,1027
115.3,1034
115.4,1072
115.5,1113
115.6,1103
115.7,1015
115.8,1051
115.9,1003
116,1063
116.1,1074
116.2,1062
116.3,1049
116.4,1066
116.5,1023
116.6,1025
116.7,1037
116.8,1222
116.9,1508
117,1377
117.1,1317
117.2,1142
117.3,1165
117.4,1289
117.5,1164
117.6,1107
117.7,1023
117.8,1022
117.9,1040
118,1005
118.1,1039
118.2,998
118.3,987
118.4,1046
118.5,1001
118.6,1067
118.7,1000
118.8,1055
118.9,1050
119,1006
119.1,1078
119.2,1128
119.3,1128
119.4,1162
119.5,1318
119.6,1631
119.7,1775
119.8,1851
119.9,1634
120,1526
120.1,1467
120.2,1491
120.3,1496
120.4,1315
120.5,1272
120.6,1094
120.7,1060
120.8,1072
120.9,1015
121,1084
121.1,1163
121.2,1140
121.3,1089
121.4,1023
121.5,1095
121.6,1092
121.7,1132
121.8,1077
121.9,1009
122,1069
122.1,988
122.2,1079
122.3,1091
122.4,1198
122.5,1448
122.6,1522
122.7,1368
122.8,1232
122.9,1154
123,1233
123.1,1360
123.2,1231
123.3,1118
123.4,1055
123.5,1088
123.6,1069
123.7,1091
123.8,1039
123.9,1121
124,1147
124.1,1046
124.2,1014
124.3,1149
124.4,1113
124.5,1055
124.6,1074
124.7,1073
124.8,1025
124.9,1016
125,1038
125.1,1024
125.2,1022
125.3,976
125.4,1086
125.5,1039
125.6,1048
125.7,1034
125.8,1061
125.9,967
126,1059
126.1,1053
126.2,1060
126.3,1123
126.4,1060
126.5,1055
126.6,987
126.7,1032
126.8,1020
126.9,1110
127,1000
127.1,991
127.2,1036
127.3,1038
127.4,1012
127.5,1032
127.6,1050
127.7,1016
127.8,1011
127.9,1012
128,1025
128.1,1061
128.2,1054
128.3,1038
128.4,1099
128.5,1233
128.6,1346
128.7,1379
128.8,1440
128.9,1374
129,1265
129.1,1195
129.2,1241
129.3,1324
129.4,1271
129.5,1253
129.6,1221
129.7,1110
129.8,1160
129.9,1156
130,1174
130.1,1247
130.2,1216
130.3,1084
130.4,1171
130.5,1176
130.6,1128
130.7,1155
130.8,1116
130.9,1107
131,1104
131.1,1064
131.2,1091
131.3,1110
131.4,1117
131.5,1032
131.6,1092
131.7,1123
131.8,1114
131.9,1111
132,1121
132.1,1172
132.2,1151
132.3,1102
132.4,1116
132.5,1073
132.6,1063
132.7,1144
132.8,1068
132.9,1070
133,1124
133.1,1096
133.2,1064
133.3,1097
133.4,1152
133.5,1245
133.6,1203
133.7,1226
133.8,1257
133.9,1235
134,1261
134.1,1204
134.2,1172
134.3,1204
134.4,1196
134.5,1201
134.6,1130
134.7,1084
134.8,1162
134.9,1125
135,1147
135.1,1221
135.2,1289
135.3,1255
135.4,1186
135.5,1264
135.6,1327
135.7,1257
135.8,1135
135.9,1177
136,1169
136.1,1226
136.2,1174
136.3,1180
136.4,1121
136.5,1088
136.6,1108
136.7,1108
136.8,1108
136.9,1078
137,1121
137.1,1170
137.2,1192
137.3,1186
137.4,1115
137.5,1118
137.6,1139
137.7,1150
137.8,1145
137.9,1150
138,1178
138.1,1157
138.2,1153
138.3,1172
138.4,1194
138.5,1155
138.6,1193
138.7,1245
138.8,1385
138.9,1493
139,1706
139.1,1721
139.2,1702
139.3,1575
139.4,1436
139.5,1481
139.6,1377
139.7,1470
139.8,1492
139.9,1427
140,1377