File: data/xrd_icdd_PDF/00-057-0355 (PD3).csv
6,6130
6.08,6283
6.16,6018
6.24,5645
6.32,5798
6.4,5715
6.48,5619
6.56,5515
6.64,5600
6.72,5546
6.8,5195
6.88,5355
6.96,5331
7.04,5262
7.12,5472
7.2,5222
7.28,5456
7.36,5258
7.44,5074
7.52,5226
7.6,5123
7.68,5326
7.76,5374
7.84,5256
7.92,5365
8,5149
8.08,5216
8.16,5210
8.24,4966
8.32,5082
8.4,4800
8.48,4832
8.56,4630
8.64,4576
8.72,4670
8.8,4510
8.88,4386
8.96,4272
9.04,4360
9.12,4256
9.2,4429
9.28,4424
9.36,4262
9.44,4475
9.52,4464
9.6,4221
9.68,4469
9.76,4333
9.84,4357
9.92,4387
10,4357
10.08,4394
10.16,4307
10.24,4416
10.32,4330
10.4,4349
10.48,4738
10.56,4872
10.64,4488
10.72,4448
10.8,4269
10.88,4310
10.96,4163
11.04,4282
11.12,4184
11.2,4190
11.28,4277
11.36,4144
11.44,4083
11.52,3966
11.6,4040
11.68,4054
11.76,3928
11.84,3928
11.92,3766
12,3944
12.08,3925
12.16,3904
12.24,3971
12.32,3952
12.4,3917
12.48,4093
12.56,3963
12.64,3862
12.72,3978
12.8,3910
12.88,3861
12.96,3885
13.04,3934
13.12,3902
13.2,3819
13.28,3896
13.36,3830
13.44,3926
13.52,3795
13.6,3795
13.68,3802
13.76,3960
13.84,3848
13.92,3790
14,3846
14.08,3715
14.16,3827
14.24,3722
14.32,3978
14.4,3790
14.48,3944
14.56,3752
14.64,3571
14.72,3786
14.8,3789
14.88,3802
14.96,3934
15.04,3797
15.12,3738
15.2,3694
15.28,3872
15.36,3674
15.44,3552
15.52,3651
15.6,3683
15.68,3698
15.76,3893
15.84,3752
15.92,3720
16,3706
16.08,3621
16.16,3645
16.24,3507
16.32,3576
16.4,3584
16.48,3552
16.56,3614
16.64,3603
16.72,3787
16.8,3642
16.88,3685
16.96,3597
17.04,3600
17.12,3568
17.2,3597
17.28,3453
17.36,3418
17.44,3736
17.52,3797
17.6,4032
17.68,4565
17.76,5669
17.84,7088
17.92,4979
18,4072
18.08,4613
18.16,5490
18.24,8005
18.32,12109
18.4,7856
18.48,3784
18.56,3710
18.64,3654
18.72,3563
18.8,3555
18.88,3494
18.96,3538
19.04,3477
19.12,3533
19.2,3486
19.28,3368
19.36,3413
19.44,3438
19.52,3398
19.6,3370
19.68,3422
19.76,3349
19.84,3454
19.92,3410
20,3368
20.08,3261
20.16,3550
20.24,3318
20.32,3432
20.4,3358
20.48,3358
20.56,3459
20.64,3605
20.72,3440
20.8,3624
20.88,3939
20.96,4435
21.04,5403
21.12,8054
21.2,10147
21.28,5312
21.36,3442
21.44,3395
21.52,3320
21.6,3326
21.68,3440
21.76,3389
21.84,3278
21.92,3304
22,3186
22.08,3307
22.16,3077
22.24,3069
22.32,3224
22.4,3149
22.48,3290
22.56,3270
22.64,3064
22.72,3288
22.8,3194
22.88,3336
22.96,3366
23.04,3626
23.12,3914
23.2,4373
23.28,5330
23.36,6016
23.44,4146
23.52,3504
23.6,3365
23.68,3118
23.76,3216
23.84,3224
23.92,3168
24,3322
24.08,3282
24.16,3360
24.24,3056
24.32,3189
24.4,3379
24.48,3261
24.56,3290
24.64,3326
24.72,3181
24.8,3266
24.88,3222
24.96,3224
25.04,3314
25.12,3306
25.2,3490
25.28,3848
25.36,4909
25.44,7667
25.52,13834
25.6,33293
25.68,46915
25.76,18134
25.84,4891
25.92,3774
26,3590
26.08,3429
26.16,3242
26.24,3155
26.32,3050
26.4,3021
26.48,2986
26.56,3149
26.64,3011
26.72,3053
26.8,2954
26.88,3072
26.96,3142
27.04,3214
27.12,2986
27.2,3125
27.28,2984
27.36,3267
27.44,3054
27.52,3056
27.6,3176
27.68,3162
27.76,3275
27.84,3174
27.92,3163
28,3677
28.08,4584
28.16,5202
28.24,3938
28.32,3355
28.4,3499
28.48,3486
28.56,3606
28.64,3624
28.72,4454
28.8,6816
28.88,10936
28.96,7366
29.04,3784
29.12,3070
29.2,3211
29.28,3224
29.36,3182
29.44,3134
29.52,2878
29.6,2962
29.68,2941
29.76,3013
29.84,2978
29.92,2830
30,2995
30.08,2870
30.16,3088
30.24,3144
30.32,3122
30.4,2960
30.48,3170
30.56,3459
30.64,4646
30.72,8563
30.8,16528
30.88,13029
30.96,5925
31.04,3854
31.12,3464
31.2,3123
31.28,3090
31.36,3237
31.44,3568
31.52,4242
31.6,7630
31.68,15128
31.76,11283
31.84,5013
31.92,3421
32,3650
32.08,3118
32.16,2968
32.24,2846
32.32,2912
32.4,2874
32.48,2850
32.56,2851
32.64,2718
32.72,2880
32.8,2682
32.88,2898
32.96,2846
33.04,2766
33.12,2840
33.2,2838
33.28,2794
33.36,2914
33.44,2904
33.52,2813
33.6,2843
33.68,2842
33.76,2952
33.84,2861
33.92,2811
34,2912
34.08,2942
34.16,2997
34.24,3312
34.32,4038
34.4,5262
34.48,4147
34.56,3555
34.64,3322
34.72,3109
34.8,3118
34.88,3174
34.96,3338
35.04,4315
35.12,7942
35.2,11586
35.28,7954
35.36,3986
35.44,3165
35.52,2936
35.6,3074
35.68,3029
35.76,3558
35.84,4186
35.92,6570
36,16464
36.08,27571
36.16,16154
36.24,5950
36.32,3790
36.4,3429
36.48,3523
36.56,3328
36.64,3421
36.72,3339
36.8,3928
36.88,5042
36.96,9894
37.04,29368
37.12,36110
37.2,19294
37.28,5610
37.36,3496
37.44,3192
37.52,3157
37.6,2981
37.68,2989
37.76,2846
37.84,2845
37.92,2894
38,2877
38.08,2965
38.16,2883
38.24,2842
38.32,2949
38.4,2987
38.48,3224
38.56,4000
38.64,6557
38.72,5669
38.8,4032
38.88,3141
38.96,2957
39.04,2786
39.12,2768
39.2,2950
39.28,2813
39.36,2877
39.44,2741
39.52,2813
39.6,2784
39.68,2666
39.76,2632
39.84,2850
39.92,2816
40,2586
40.08,2742
40.16,2946
40.24,2800
40.32,2774
40.4,2798
40.48,2987
40.56,3733
40.64,6194
40.72,12283
40.8,8990
40.88,5742
40.96,3240
41.04,3006
41.12,2906
41.2,3088
41.28,3387
41.36,4770
41.44,5640
41.52,4466
41.6,3350
41.68,2984
41.76,2843
41.84,2746
41.92,2773
42,2683
42.08,2806
42.16,2792
42.24,2667
42.32,2765
42.4,2664
42.48,2786
42.56,2682
42.64,2731
42.72,2726
42.8,2794
42.88,3010
42.96,3086
43.04,4528
43.12,4290
43.2,3736
43.28,3101
43.36,2973
43.44,2846
43.52,3347
43.6,4389
43.68,3576
43.76,3123
43.84,2802
43.92,2928
44,2856
44.08,2864
44.16,2806
44.24,2872
44.32,2717
44.4,2890
44.48,2734
44.56,2858
44.64,2750
44.72,2776
44.8,2842
44.88,2875
44.96,2966
45.04,2869
45.12,3045
45.2,3192
45.28,2915
45.36,3016
45.44,3525
45.52,5437
45.6,11472
45.68,9091
45.76,7027
45.84,3576
45.92,2907
46,2882
46.08,2898
46.16,2832
46.24,3024
46.32,2869
46.4,2786
46.48,2846
46.56,2866
46.64,2768
46.72,2923
46.8,3142
46.88,2766
46.96,2872
47.04,3082
47.12,3758
47.2,4294
47.28,3520
47.36,3013
47.44,3106
47.52,4598
47.6,10864
47.68,11973
47.76,8752
47.84,4840
47.92,3387
48,3058
48.08,2907
48.16,2883
48.24,2893
48.32,2805
48.4,2736
48.48,2773
48.56,2878
48.64,2920
48.72,3058
48.8,3469
48.88,6496
48.96,8702
49.04,7030
49.12,8062
49.2,14906
49.28,10701
49.36,9104
49.44,4923
49.52,6075
49.6,5205
49.68,6494
49.76,6555
49.84,4864
49.92,3862
50,2960
50.08,2757
50.16,2822
50.24,2837
50.32,2936
50.4,2963
50.48,2819
50.56,2637
50.64,2666
50.72,2606
50.8,2696
50.88,2725
50.96,2814
51.04,2717
51.12,2741
51.2,2760
51.28,2762
51.36,2778
51.44,2774
51.52,2774
51.6,2789
51.68,2832
51.76,2859
51.84,2922
51.92,3941
52,7131
52.08,5928
52.16,5290
52.24,3725
52.32,2973
52.4,2842
52.48,2925
52.56,3458
52.64,6437
52.72,5550
52.8,5482
52.88,5530
52.96,5699
53.04,4222
53.12,3779
53.2,2925
53.28,2696
53.36,2694
53.44,2662
53.52,2533
53.6,2653
53.68,2744
53.76,2630
53.84,2694
53.92,2672
54,2578
54.08,2720
54.16,2747
54.24,2709
54.32,2610
54.4,2546
54.48,2616
54.56,2616
54.64,2659
54.72,2618
54.8,2648
54.88,2715
54.96,2626
55.04,2632
55.12,2723
55.2,3160
55.28,4795
55.36,4406
55.44,3947
55.52,3333
55.6,3067
55.68,3018
55.76,2877
55.84,3131
55.92,3226
56,3456
56.08,4074
56.16,6414
56.24,8154
56.32,5480
56.4,4952
56.48,3288
56.56,2845
56.64,2960
56.72,4704
56.8,5616
56.88,5325
56.96,6571
57.04,4030
57.12,3986
57.2,3046
57.28,2694
57.36,2746
57.44,2790
57.52,2587
57.6,2651
57.68,2730
57.76,2522
57.84,2525
57.92,2720
58,2864
58.08,3275
58.16,2978
58.24,2941
58.32,2619
58.4,2718
58.48,3101
58.56,3019
58.64,3042
58.72,2947
58.8,2790
58.88,2694
58.96,3014
59.04,3757
59.12,3197
59.2,3373
59.28,2851
59.36,2766
59.44,2538
59.52,2682
59.6,2723
59.68,2986
59.76,3845
59.84,4965
59.92,5085
60,4198
60.08,6096
60.16,9384
60.24,5467
60.32,6168
60.4,3770
60.48,2730
60.56,2573
60.64,2712
60.72,2677
60.8,2904
60.88,3376
60.96,2918
61.04,2888
61.12,2797
61.2,2542
61.28,2573
61.36,2808
61.44,3341
61.52,2898
61.6,2995
61.68,2830
61.76,2571
61.84,2469
61.92,2528
62,2525
62.08,2504
62.16,2598
62.24,2482
62.32,2464
62.4,2472
62.48,2459
62.56,2482
62.64,2653
62.72,2758
62.8,2859
62.88,3642
62.96,4203
63.04,5488
63.12,7368
63.2,7709
63.28,4963
63.36,5155
63.44,3182
63.52,2650
63.6,2592
63.68,2598
63.76,2619
63.84,2442
63.92,2533
64,2554
64.08,2746
64.16,2850
64.24,2589
64.32,2738
64.4,2558
64.48,2432
64.56,2589
64.64,2589
64.72,2413
64.8,2482
64.88,2491
64.96,2550
65.04,2502
65.12,2682
65.2,2477
65.28,2661
65.36,2531
65.44,2538
65.52,2621
65.6,2472
65.68,2506
65.76,2554
65.84,2642
65.92,2616
66,2770
66.08,3910
66.16,4322
66.24,3363
66.32,4208
66.4,3432
66.48,2965
66.56,2973
66.64,2867
66.72,3494
66.8,4578
66.88,3414
66.96,3787
67.04,3026
67.12,2621
67.2,2643
67.28,2773
67.36,2714
67.44,2627
67.52,2658
67.6,2565
67.68,2517
67.76,2741
67.84,3133
67.92,2763
68,2848
68.08,2766
68.16,2541
68.24,2619
68.32,2698
68.4,3630
68.48,3893
68.56,3019
68.64,3702
68.72,2691
68.8,2605
68.88,2702
68.96,2757
69.04,2730
69.12,2944
69.2,4157
69.28,5411
69.36,5003
69.44,5094
69.52,3822
69.6,3696
69.68,3907
69.76,4755
69.84,3558
69.92,4011
70,3258
70.08,2770
70.16,2598
70.24,2509
70.32,2541
70.4,2544
70.48,2533
70.56,2661
70.64,2544
70.72,2622
70.8,2538
70.88,2563
70.96,2494
71.04,2453
71.12,2541
71.2,2646
71.28,2538
71.36,2546
71.44,2587
71.52,2597
71.6,2699
71.68,3026
71.76,5043
71.84,4058
71.92,3339
72,3845
72.08,3002
72.16,2742
72.24,2683
72.32,2701
72.4,3379
72.48,3739
72.56,3478
72.64,3242
72.72,3021
72.8,2877
72.88,2510
72.96,2512
73.04,2440
73.12,2530
73.2,2571
73.28,2494
73.36,2734
73.44,3334
73.52,2851
73.6,2874
73.68,2925
73.76,2594
73.84,2634
73.92,3003
74,2997
74.08,2584
74.16,2941
74.24,3147
74.32,4062
74.4,3285
74.48,3235
74.56,3867
74.64,2939
74.72,2693
74.8,2675
74.88,2554
74.96,2690
75.04,2630
75.12,2578
75.2,2816
75.28,4144
75.36,4576
75.44,3648
75.52,6467
75.6,5090
75.68,3635
75.76,5717
75.84,4490
75.92,3085
76,3418
76.08,3176
76.16,3008
76.24,2942
76.32,2982
76.4,3243
76.48,3112
76.56,2718
76.64,2752
76.72,2662
76.8,2464
76.88,2515
76.96,2307
77.04,2504
77.12,2469
77.2,2762
77.28,3048
77.36,3059
77.44,2653
77.52,2838
77.6,2749
77.68,2541
77.76,2530
77.84,2526
77.92,2917
78,3725
78.08,3032
78.16,2654
78.24,3158
78.32,2728
78.4,2773
78.48,3536
78.56,3416
78.64,2776
78.72,3237
78.8,2978
78.88,3379
78.96,3290
79.04,2605
79.12,3000
79.2,2862
79.28,2718
79.36,4288
79.44,4245
79.52,3002
79.6,3491
79.68,3387
79.76,2806
79.84,2792
79.92,2910
80,2605
80.08,2522
80.16,2654
80.24,2549
80.32,2379
80.4,2378
80.48,2317
80.56,2406
80.64,2642
80.72,2661
80.8,2862
80.88,3403
80.96,4141
81.04,3224
81.12,3173
81.2,4565
81.28,4134
81.36,4163
81.44,3414
81.52,3322
81.6,3440
81.68,3522
81.76,2882
81.84,2517
81.92,2931
82,2627
82.08,2326
82.16,2442
82.24,2480
82.32,2386
82.4,2402
82.48,2342
82.56,2430
82.64,2598
82.72,2576
82.8,3285
82.88,2846
82.96,2437
83.04,2790
83.12,2659
83.2,2496
83.28,2382
83.36,2578
83.44,2597
83.52,2442
83.6,2486
83.68,2598
83.76,2605
83.84,3368
83.92,3053
84,2550
84.08,2773
84.16,2995
84.24,2581
84.32,3162
84.4,3118
84.48,2757
84.56,4019
84.64,4117
84.72,2850
84.8,2958
84.88,3240
84.96,2682
85.04,2448
85.12,2389
85.2,2554
85.28,2390
85.36,2405
85.44,2533
85.52,2382
85.6,2376
85.68,2283
85.76,2397
85.84,2432
85.92,2434
86,2648
86.08,3397
86.16,2890
86.24,3365
86.32,3994
86.4,3038
86.48,2733
86.56,3096
86.64,2699
86.72,2435
86.8,2419
86.88,2422
86.96,2806
87.04,4214
87.12,3328
87.2,2946
87.28,3078
87.36,3192
87.44,2734
87.52,2645
87.6,3638
87.68,3986
87.76,3179
87.84,3210
87.92,3605
88,3162
88.08,3138
88.16,3414
88.24,2755
88.32,2603
88.4,2765
88.48,2442
88.56,2395
88.64,2352
88.72,2323
88.8,2437
88.88,2296
88.96,2280
89.04,2410
89.12,2592
89.2,2382
89.28,2515
89.36,2901
89.44,3470
89.52,2885
89.6,3336
89.68,4274
89.76,3104
89.84,2878
89.92,3898
90,3526
90.08,3389
90.16,4034
90.24,3288
90.32,2846
90.4,3248
90.48,3034
90.56,2541
90.64,2424
90.72,2507
90.8,2389
90.88,2397
90.96,2771
91.04,3106
91.12,2576
91.2,2504
91.28,2690
91.36,2570
91.44,2536
91.52,2587
91.6,2467
91.68,2442
91.76,2472
91.84,2480
91.92,2282
92,2384
92.08,2440
92.16,2360
92.24,2450
92.32,2242
92.4,2254
92.48,2493
92.56,2702
92.64,2429
92.72,2405
92.8,2464
92.88,2634
92.96,2357
93.04,2414
93.12,2445
93.2,2595
93.28,2923
93.36,2866
93.44,3038
93.52,2774
93.6,2707
93.68,2691
93.76,2742
93.84,2448
93.92,2445
94,2451
94.08,2326
94.16,2438
94.24,2341
94.32,2342
94.4,2464
94.48,2411
94.56,2347
94.64,2706
94.72,2624
94.8,2699
94.88,2536
94.96,2547
95.04,2555
95.12,2726
95.2,3331
95.28,3154
95.36,3002
95.44,4502
95.52,3939
95.6,2909
95.68,2928
95.76,3560
95.84,3429
95.92,4064
96,3274
96.08,2666
96.16,3096
96.24,3480
96.32,2810
96.4,2622
96.48,2642
96.56,2523
96.64,2358
96.72,2653
96.8,2688
96.88,2584
96.96,2501
97.04,2493
97.12,2645
97.2,2506
97.28,2784
97.36,2947
97.44,2747
97.52,2406
97.6,2597
97.68,2709
97.76,2578
97.84,2491
97.92,2355
98,2402
98.08,2299
98.16,2374
98.24,2394
98.32,2374
98.4,2445
98.48,2440
98.56,2714
98.64,3440
98.72,3499
98.8,3669
98.88,3666
98.96,3195
99.04,3502
99.12,3904
99.2,3253
99.28,2658
99.36,2662
99.44,2824
99.52,2586
99.6,2818
99.68,2656
99.76,2344
99.84,2490
99.92,2362
100,2469