File: data/xrd_icdd_PDF/00-063-0396 (PD3).csv
5,1018
5.08,976
5.16,912
5.24,997
5.32,912
5.4,891
5.48,876
5.56,848
5.64,785
5.72,918
5.8,933
5.88,748
5.96,806
6.04,806
6.12,812
6.2,721
6.28,679
6.36,706
6.44,664
6.52,658
6.6,664
6.68,606
6.76,700
6.84,621
6.92,679
7,609
7.08,658
7.16,594
7.24,679
7.32,551
7.4,573
7.48,509
7.56,658
7.64,621
7.72,482
7.8,424
7.88,536
7.96,509
8.04,530
8.12,482
8.2,424
8.28,530
8.36,509
8.44,445
8.52,453
8.6,424
8.68,467
8.76,424
8.84,467
8.92,488
9,424
9.08,445
9.16,494
9.24,482
9.32,382
9.4,424
9.48,418
9.56,489
9.64,402
9.72,482
9.8,467
9.88,424
9.96,409
10.04,424
10.12,392
10.2,467
10.28,382
10.36,376
10.44,403
10.52,382
10.6,382
10.68,381
10.76,425
10.84,376
10.92,403
11,425
11.08,367
11.16,382
11.24,424
11.32,361
11.4,397
11.48,405
11.56,397
11.64,376
11.72,339
11.8,355
11.88,344
11.96,339
12.04,411
12.12,325
12.2,406
12.28,391
12.36,350
12.44,339
12.52,371
12.6,370
12.68,438
12.76,331
12.84,312
12.92,335
13,313
13.08,313
13.16,312
13.24,357
13.32,309
13.4,336
13.48,359
13.56,302
13.64,317
13.72,360
13.8,297
13.88,335
13.96,343
14.04,335
14.12,315
14.2,279
14.28,295
14.36,276
14.44,303
14.52,341
14.6,319
14.68,288
14.76,346
14.84,268
14.92,311
15,335
15.08,336
15.16,289
15.24,296
15.32,340
15.4,272
15.48,315
15.56,260
15.64,297
15.72,268
15.8,308
15.88,322
15.96,323
16.04,293
16.12,295
16.2,272
16.28,273
16.36,276
16.44,315
16.52,309
16.6,332
16.68,364
16.76,447
16.84,401
16.92,286
17,266
17.08,309
17.16,260
17.24,240
17.32,283
17.4,297
17.48,255
17.56,297
17.64,276
17.72,236
17.8,321
17.88,265
17.96,349
18.04,310
18.12,254
18.2,236
18.28,252
18.36,222
18.44,298
18.52,215
18.6,211
18.68,240
18.76,220
18.84,222
18.92,223
19,269
19.08,222
19.16,255
19.24,258
19.32,228
19.4,287
19.48,210
19.56,253
19.64,278
19.72,280
19.8,234
19.88,242
19.96,287
20.04,220
20.12,265
20.2,210
20.28,248
20.36,220
20.44,263
20.52,278
20.6,282
20.68,255
20.76,264
20.84,255
20.92,297
21,636
21.08,424
21.16,295
21.24,287
21.32,290
21.4,229
21.48,272
21.56,252
21.64,232
21.72,214
21.8,270
21.88,212
21.96,179
22.04,202
22.12,220
22.2,222
22.28,273
22.36,235
22.44,232
22.52,264
22.6,272
22.68,235
22.76,308
22.84,370
22.92,277
23,226
23.08,289
23.16,249
23.24,291
23.32,237
23.4,237
23.48,313
23.56,488
23.64,721
23.72,848
23.8,424
23.88,382
23.96,293
24.04,244
24.12,294
24.2,213
24.28,255
24.36,278
24.44,281
24.52,236
24.6,247
24.68,295
24.76,232
24.84,284
24.92,241
25,297
25.08,302
25.16,361
25.24,594
25.32,1294
25.4,2227
25.48,1354
25.56,691
25.64,411
25.72,309
25.8,343
25.88,262
25.96,336
26.04,488
26.12,665
26.2,543
26.28,372
26.36,331
26.44,238
26.52,274
26.6,214
26.68,249
26.76,219
26.84,259
26.92,273
27,275
27.08,245
27.16,247
27.24,224
27.32,226
27.4,228
27.48,266
27.56,257
27.64,265
27.72,237
27.8,196
27.88,243
27.96,227
28.04,267
28.12,246
28.2,217
28.28,276
28.36,201
28.44,245
28.52,270
28.6,274
28.68,228
28.76,237
28.84,283
28.92,216
29,262
29.08,208
29.16,247
29.24,220
29.32,264
29.4,281
29.48,286
29.56,262
29.64,280
29.72,300
29.8,348
29.88,328
29.96,324
30.04,301
30.12,311
30.2,295
30.28,339
30.36,339
30.44,551
30.52,1273
30.6,1061
30.68,445
30.76,339
30.84,326
30.92,276
31,325
31.08,244
31.16,285
31.24,309
31.32,312
31.4,266
31.48,276
31.56,322
31.64,257
31.72,304
31.8,253
31.88,294
31.96,269
32.04,315
32.12,335
32.2,342
32.28,321
32.36,332
32.44,319
32.52,334
32.6,353
32.68,414
32.76,437
32.84,498
32.92,576
33,850
33.08,1720
33.16,2459
33.24,2068
33.32,1289
33.4,960
33.48,1096
33.56,1461
33.64,3022
33.72,6862
33.8,11284
33.88,10881
33.96,5939
34.04,3351
34.12,2927
34.2,3669
34.28,6448
34.36,8145
34.44,7360
34.52,3966
34.6,2163
34.68,1282
34.76,844
34.84,701
34.92,572
35,518
35.08,528
35.16,426
35.24,443
35.32,566
35.4,594
35.48,721
35.56,1145
35.64,1103
35.72,742
35.8,551
35.88,509
35.96,1103
36.04,1230
36.12,3436
36.2,4263
36.28,2460
36.36,1221
36.44,760
36.52,561
36.6,445
36.68,392
36.76,386
36.84,341
36.92,408
37,320
37.08,313
37.16,342
37.24,323
37.32,329
37.4,334
37.48,388
37.56,352
37.64,394
37.72,435
37.8,404
37.88,458
37.96,560
38.04,592
38.12,797
38.2,1145
38.28,1803
38.36,4094
38.44,7233
38.52,5790
38.6,3181
38.68,1760
38.76,1167
38.84,1124
38.92,1251
39,2927
39.08,3860
39.16,2376
39.24,1251
39.32,806
39.4,661
39.48,634
39.56,572
39.64,519
39.72,462
39.8,370
39.88,398
39.96,367
40.04,341
40.12,316
40.2,368
40.28,307
40.36,271
40.44,292
40.52,309
40.6,310
40.68,361
40.76,322
40.84,318
40.92,349
41,352
41.08,294
41.16,317
41.24,367
41.32,327
41.4,314
41.48,394
41.56,366
41.64,421
41.72,386
41.8,413
41.88,521
41.96,701
42.04,1103
42.12,2545
42.2,2609
42.28,1676
42.36,933
42.44,594
42.52,602
42.6,653
42.68,959
42.76,1002
42.84,985
42.92,914
43,1175
43.08,1645
43.16,1523
43.24,1041
43.32,706
43.4,511
43.48,421
43.56,360
43.64,400
43.72,312
43.8,348
43.88,367
43.96,366
44.04,317
44.12,323
44.2,366
44.28,298
44.36,341
44.44,286
44.52,323
44.6,295
44.68,336
44.76,351
44.84,353
44.92,324
45,327
45.08,305
45.16,307
45.24,309
45.32,347
45.4,337
45.48,345
45.56,317
45.64,276
45.72,323
45.8,307
45.88,348
45.96,328
46.04,300
46.12,360
46.2,287
46.28,335
46.36,368
46.44,395
46.52,405
46.6,463
46.68,487
46.76,376
46.84,384
46.92,322
47,380
47.08,394
47.16,443
47.24,432
47.32,399
47.4,348
47.48,343
47.56,318
47.64,320
47.72,325
47.8,366
47.88,362
47.96,379
48.04,366
48.12,344
48.2,428
48.28,552
48.36,1061
48.44,1612
48.52,1273
48.6,848
48.68,382
48.76,464
48.84,404
48.92,286
49,319
49.08,310
49.16,379
49.24,293
49.32,374
49.4,360
49.48,321
49.56,310
49.64,332
49.72,315
49.8,422
49.88,385
49.96,383
50.04,389
50.12,337
50.2,320
50.28,315
50.36,363
50.44,325
50.52,380
50.6,456
50.68,425
50.76,420
50.84,432
50.92,345
51,382
51.08,408
51.16,410
51.24,391
51.32,359
51.4,401
51.48,472
51.56,616
51.64,775
51.72,708
51.8,721
51.88,870
51.96,1336
52.04,1315
52.12,1548
52.2,1082
52.28,728
52.36,535
52.44,472
52.52,441
52.6,363
52.68,397
52.76,371
52.84,348
52.92,328
53,386
53.08,331
53.16,305
53.24,345
53.32,412
53.4,522
53.48,678
53.56,613
53.64,564
53.72,521
53.8,460
53.88,362
53.96,355
54.04,388
54.12,337
54.2,315
54.28,386
54.36,347
54.44,387
54.52,330
54.6,320
54.68,359
54.76,356
54.84,390
54.92,512
55,706
55.08,894
55.16,954
55.24,814
55.32,632
55.4,489
55.48,513
55.56,479
55.64,479
55.72,587
55.8,791
55.88,918
55.96,878
56.04,729
56.12,616
56.2,656
56.28,717
56.36,608
56.44,565
56.52,531
56.6,439
56.68,411
56.76,500
56.84,511
56.92,683
57,1188
57.08,1273
57.16,1442
57.24,1103
57.32,976
57.4,1018
57.48,1400
57.56,1570
57.64,1145
57.72,954
57.8,706
57.88,518
57.96,470
58.04,507
58.12,474
58.2,506
58.28,693
58.36,1001
58.44,1474
58.52,1478
58.6,1280
58.68,1121
58.76,1130
58.84,1108
58.92,1061
59,1115
59.08,1066
59.16,905
59.24,775
59.32,708
59.4,706
59.48,883
59.56,926
59.64,841
59.72,710
59.8,589
59.88,423
59.96,383
60.04,343
60.12,332
60.2,370
60.28,382
60.36,322
60.44,365
60.52,343
60.6,323
60.68,304
60.76,360
60.84,301
60.92,267
61,290
61.08,307
61.16,310
61.24,362
61.32,324
61.4,322
61.48,356
61.56,364
61.64,316
61.72,362
61.8,459
61.88,487
61.96,554
62.04,683
62.12,606
62.2,633
62.28,545
62.36,461
62.44,442
62.52,378
62.6,344
62.68,373
62.76,388
62.84,340
62.92,412
63,443
63.08,455
63.16,417
63.24,460
63.32,390
63.4,378
63.48,436
63.56,436
63.64,414
63.72,435
63.8,368
63.88,358
63.96,405
64.04,463
64.12,504
64.2,575
64.28,574
64.36,485
64.44,399
64.52,420
64.6,357
64.68,388
64.76,326
64.84,315
64.92,345
65,368
65.08,372
65.16,412
65.24,532
65.32,720
65.4,1041
65.48,1665
65.56,1506
65.64,1251
65.72,1103
65.8,848
65.88,806
65.96,703
66.04,577
66.12,499
66.2,413
66.28,412
66.36,393
66.44,339
66.52,349
66.6,417
66.68,422
66.76,485
66.84,549
66.92,484
67,490
67.08,442
67.16,342
67.24,295
67.32,302
67.4,301
67.48,309
67.56,330
67.64,349
67.72,358
67.8,359
67.88,408
67.96,398
68.04,421
68.12,382
68.2,398
68.28,375
68.36,389
68.44,304
68.52,328
68.6,328
68.68,279
68.76,335
68.84,354
68.92,318
69,329
69.08,379
69.16,328
69.24,308
69.32,363
69.4,369
69.48,447
69.56,491
69.64,494
69.72,564
69.8,618
69.88,585
69.96,542
70.04,492
70.12,441
70.2,397
70.28,360
70.36,375
70.44,324
70.52,313
70.6,299
70.68,349
70.76,375
70.84,462
70.92,471
71,600
71.08,827
71.16,1718
71.24,2503
71.32,1442
71.4,1824
71.48,1315
71.56,679
71.64,421
71.72,369
71.8,427
71.88,291
71.96,281
72.04,248
72.12,318
72.2,363
72.28,371
72.36,250
72.44,260
72.52,323
72.6,308
72.68,372
72.76,397
72.84,382
72.92,426
73,554
73.08,501
73.16,481
73.24,516
73.32,586
73.4,634
73.48,633
73.56,572
73.64,550
73.72,419
73.8,407
73.88,392
73.96,379
74.04,332
74.12,343
74.2,392
74.28,347
74.36,437
74.44,459
74.52,560
74.6,525
74.68,557
74.76,534
74.84,484
74.92,424
75,417
75.08,426
75.16,529
75.24,709
75.32,854
75.4,758
75.48,701
75.56,609
75.64,469
75.72,468
75.8,462
75.88,512
75.96,472
76.04,454
76.12,558
76.2,574
76.28,727
76.36,734
76.44,703
76.52,680
76.6,708
76.68,748
76.76,646
76.84,698
76.92,602
77,539
77.08,446
77.16,430
77.24,393
77.32,363
77.4,317
77.48,311
77.56,283
77.64,283
77.72,286
77.8,326
77.88,321
77.96,337
78.04,323
78.12,308
78.2,402
78.28,503
78.36,827
78.44,1061
78.52,1039
78.6,870
78.68,742
78.76,679
78.84,467
78.92,297
79,467
79.08,363
79.16,293
79.24,225
79.32,328
79.4,310
79.48,255
79.56,271
79.64,252
79.72,318
79.8,295
79.88,329
79.96,339
80.04,271
80.12,280
80.2,315
80.28,296
80.36,192
80.44,232
80.52,227
80.6,299
80.68,213
80.76,295
80.84,282
80.92,241
81,229
81.08,246
81.16,217
81.24,295
81.32,214
81.4,213
81.48,244
81.56,225
81.64,227
81.72,229
81.8,276
81.88,232
81.96,263
82.04,294
82.12,250
82.2,290
82.28,372
82.36,342
82.44,369
82.52,362
82.6,348
82.68,311
82.76,255
82.84,262
82.92,251
83,255
83.08,337
83.16,252
83.24,333
83.32,324
83.4,294
83.48,304
83.56,362
83.64,362
83.72,424
83.8,335
83.88,347
83.96,388
84.04,356
84.12,326
84.2,307
84.28,344
84.36,280
84.44,295
84.52,319
84.6,273
84.68,295
84.76,331
84.84,266
84.92,306
85,308
85.08,293
85.16,272
85.24,238
85.32,254
85.4,232
85.48,261
85.56,305
85.64,288
85.72,260
85.8,319
85.88,248
85.96,305
86.04,350
86.12,365
86.2,308
86.28,307
86.36,350
86.44,278
86.52,319
86.6,272
86.68,325
86.76,303
86.84,343
86.92,362
87,369
87.08,333
87.16,327
87.24,303
87.32,299
87.4,290
87.48,322
87.56,310
87.64,315
87.72,287
87.8,305
87.88,321
87.96,445
88.04,424
88.12,679
88.2,806
88.28,679
88.36,721
88.44,509
88.52,551
88.6,785
88.68,976
88.76,658
88.84,424
88.92,721
89,510
89.08,456
89.16,326
89.24,339
89.32,302
89.4,354
89.48,260
89.56,345
89.64,345
89.72,323
89.8,313
89.88,321
89.96,290
90.04,369
90.12,274
90.2,254
90.28,275
90.36,250
90.44,247
90.52,243
90.6,288
90.68,241
90.76,271
90.84,298
90.92,246
91,271
91.08,329
91.16,284
91.24,325
91.32,328
91.4,319
91.48,303
91.56,265
91.64,279
91.72,271
91.8,277
91.88,382
91.96,424
92.04,318
92.12,573
92.2,467
92.28,551
92.36,721
92.44,509
92.52,382
92.6,509
92.68,445
92.76,344
92.84,311
92.92,283
93,329
93.08,282
93.16,353
93.24,362
93.32,348
93.4,411
93.48,436
93.56,430
93.64,468
93.72,509
93.8,509
93.88,488
93.96,439
94.04,410
94.12,449
94.2,582
94.28,551
94.36,488
94.44,467
94.52,679
94.6,484
94.68,424
94.76,445
94.84,339
94.92,367
95,424
95.08,312
95.16,212
95.24,255
95.32,297
95.4,297
95.48,255
95.56,339
95.64,339
95.72,312
95.8,318
95.88,233
95.96,233
96.04,361
96.12,297
96.2,297
96.28,382
96.36,339
96.44,255
96.52,297
96.6,382
96.68,339
96.76,276
96.84,382
96.92,339
97,467
97.08,424
97.16,445
97.24,397
97.32,424
97.4,382
97.48,424
97.56,418
97.64,445
97.72,355
97.8,403
97.88,339
97.96,382
98.04,339
98.12,382
98.2,339
98.28,339
98.36,276
98.44,382
98.52,339
98.6,424
98.68,403
98.76,451
98.84,445
98.92,424
99,424
99.08,382
99.16,424
99.24,403
99.32,467
99.4,409
99.48,424
99.56,355
99.64,424
99.72,467
99.8,382
99.88,488
99.96,436
100.04,806
100.12,1188
100.2,933
100.28,721
100.36,721
100.44,679
100.52,594
100.6,424
100.68,403
100.76,297
100.84,403
100.92,297
101,355
101.08,297
101.16,339
101.24,355
101.32,382
101.4,355
101.48,312
101.56,297
101.64,255
101.72,270
101.8,382
101.88,339
101.96,355
102.04,339
102.12,339
102.2,403
102.28,382
102.36,467
102.44,488
102.52,430
102.6,488
102.68,509
102.76,445
102.84,409
102.92,382
103,339
103.08,382
103.16,304
103.24,304
103.32,271
103.4,315
103.48,274
103.56,321
103.64,348
103.72,293
103.8,328
103.88,392
103.96,393
104.04,308
104.12,373
104.2,394
104.28,489
104.36,424
104.44,533
104.52,539
104.6,489
104.68,457
104.76,460
104.84,418
104.92,475
105,368
105.08,345
105.16,360
105.24,328
105.32,323
105.4,318
105.48,339
105.56,361
105.64,424
105.72,333
105.8,382
105.88,333
105.96,382
106.04,467
106.12,361
106.2,382
106.28,339
106.36,297
106.44,297
106.52,339
106.6,339
106.68,361
106.76,339
106.84,297
106.92,297
107,376
107.08,312
107.16,424
107.24,361
107.32,339
107.4,424
107.48,436
107.56,509
107.64,499
107.72,425
107.8,434
107.88,361
107.96,325
108.04,359
108.12,345
108.2,390
108.28,386
108.36,318
108.44,298
108.52,420
108.6,298
108.68,317
108.76,381
108.84,407
108.92,440
109,317
109.08,331
109.16,378
109.24,414
109.32,488
109.4,594
109.48,488
109.56,594
109.64,551
109.72,806
109.8,933
109.88,764
109.96,721
110.04,508
110.12,555
110.2,580
110.28,651
110.36,636
110.44,545
110.52,516
110.6,632
110.68,485
110.76,466
110.84,496
110.92,497
111,509
111.08,357
111.16,337
111.24,348
111.32,343
111.4,360
111.48,359
111.56,423
111.64,424
111.72,266
111.8,294
111.88,311
111.96,401
112.04,333
112.12,404
112.2,370
112.28,399
112.36,371
112.44,428
112.52,388
112.6,319
112.68,318
112.76,315
112.84,371
112.92,319
113,373
113.08,357
113.16,316
113.24,362
113.32,369
113.4,329
113.48,347
113.56,410
113.64,374
113.72,445
113.8,424
113.88,424
113.96,339
114.04,424
114.12,382
114.2,339
114.28,467
114.36,409
114.44,382
114.52,339
114.6,355
114.68,353
114.76,434
114.84,393
114.92,326
115,395
115.08,491
115.16,447
115.24,389
115.32,509
115.4,458
115.48,536
115.56,416
115.64,382
115.72,344
115.8,392
115.88,341
115.96,363
116.04,367
116.12,414
116.2,328
116.28,372
116.36,329
116.44,417
116.52,398
116.6,433
116.68,379
116.76,384
116.84,334
116.92,452
117,409
117.08,476
117.16,429
117.24,449
117.32,428
117.4,414
117.48,423
117.56,381
117.64,413
117.72,382
117.8,432
117.88,352
117.96,351
118.04,288
118.12,373
118.2,418
118.28,326
118.36,426
118.44,366
118.52,410
118.6,311
118.68,370
118.76,314
118.84,355
118.92,365
119,385
119.08,340
119.16,346
119.24,260
119.32,377
119.4,276
119.48,337
119.56,282
119.64,327
119.72,344
119.8,371
119.88,344
119.96,300
120.04,284